Time (s),Acceleration x (m/s^2),Acceleration y (m/s^2),Acceleration z (m/s^2)
0.00760755,-0.37110126,0.045489833,9.703699112
0.029636222,-0.287304193,-0.026336219,9.782708168
0.079636222,-0.225054964,-0.067037649,9.900024414
0.129636222,-0.229843363,0.08379706,9.59835434
0.179636222,-0.366312861,0.016759412,9.844957352
0.229636222,-0.311246216,0.047884032,9.646238327
0.279636222,-0.330399841,0.124498487,9.617507935
0.329636222,-0.272938997,0.052672438,9.722852707
0.379636222,-0.342370838,0.062249243,9.840168953
0.429636222,-0.356736064,0.112527482,9.749189377
0.479636222,-0.33518824,0.105344877,9.703699112
0.529636222,-0.366312861,0.052672438,9.720458984
0.579636222,-0.356736064,0.098162271,9.753977776
0.629636222,-0.311246216,0.093373865,9.655815125
0.679636222,-0.337582439,0.055066638,9.763554573
0.729636222,-0.304063618,0.067037649,9.648633003
0.779636222,-0.435744703,0.033518825,9.873687744
0.829636222,-0.337582439,0.055066638,9.732429504
0.879636222,-0.387860686,0.050278235,9.840168953
0.929636222,-0.349553436,0.059855044,9.655815125
0.979636222,-0.33279404,0.079008654,9.689333916
1.029636222,-0.308852017,0.050278235,9.710882187
1.079636222,-0.308852017,0.074220255,9.718064308
1.129636222,-0.33279404,0.086191259,9.701305389
1.179636222,-0.328005642,-0.035913024,9.87608242
1.229636222,-0.301669419,0.050278235,9.818621635
1.279636222,-0.359130263,0.059855044,9.667786598
1.329636222,-0.402225882,0.150834709,9.739612579
1.379636222,-0.337582439,-0.02873042,9.799467087
1.429636222,-0.294486821,0.098162271,9.749189377
1.479636222,-0.268150598,0.079008654,9.588777542
1.529636222,-0.280121595,0.095768064,9.643844604
1.579636222,-0.368707061,0.057460841,9.868899345
1.629636222,-0.411802679,-0.076614454,10.18972206
1.679636222,-0.253785372,0.100556471,9.789890289
1.729636222,-0.275333196,0.119710088,9.603142738
1.779636222,-0.134075299,0.026336219,9.473855972
1.829636222,-0.292092621,0.126892686,9.607931137
1.879636222,-0.481234551,0.193930343,9.840168953
1.929636222,-0.359130263,0.18435353,9.725247383
1.979636222,-0.368707061,0.064643443,9.88805294
2.029636222,-0.189141929,0.105344877,9.689333916
2.079636222,-0.098162271,0.04309563,9.689333916
2.129636222,-0.071826048,-0.01436521,9.706093788
2.179636222,-0.29688102,0.124498487,9.746794701
2.229636222,-0.270544797,0.155623108,9.739612579
2.279636222,-0.44532153,0.062249243,9.830592155
2.329636222,-0.404620081,0.129286885,9.579200745
2.379636222,-0.177170932,-0.045489833,9.576807022
2.429636222,-0.363918662,0.086191259,9.734824181
2.479636222,-0.277727395,0.016759412,9.864110947
2.529636222,-0.289698392,0,9.758766174
2.579636222,-0.277727395,-0.055066638,9.701305389
2.629636222,-0.375889659,0.011971008,10.05325317
2.679636222,-0.256179571,0.059855044,9.615114212
2.729636222,-0.232237563,0.019153614,9.938331604
2.779636222,-0.189141929,0.098162271,9.507374763
2.829636222,-0.229843363,0.047884032,9.746794701
2.879636222,-0.191536129,0.129286885,9.581595421
2.929636222,-0.239420176,0.057460841,9.87608242
2.979636222,-0.256179571,0.14844051,9.667786598
3.029636222,-0.256179571,0.04070143,9.861717224
3.079636222,-0.241814375,0.177170932,9.672574997
3.129636222,-0.270544797,0.038307227,9.861717224
3.179636222,-0.253785372,0.126892686,9.653421402
3.229636222,-0.246602774,0.105344877,9.686940193
3.279636222,-0.260968,0.090979666,9.744400978
3.329636222,-0.189141929,0.117315881,9.696516991
3.379636222,-0.260968,0.14844051,9.698910713
3.429636222,-0.229843363,0.153228909,9.689333916
3.479636222,-0.282515794,0.146046311,9.667786598
3.529636222,-0.284909993,0.129286885,9.744400978
3.579636222,-0.201112941,0.074220255,9.842563629
3.629636222,-0.253785372,0.107739076,9.84974575
3.679636222,-0.208295554,0.114921682,9.780313492
3.729636222,-0.229843363,0.155623108,9.715670586
3.779636222,-0.220266551,0.088585466,9.662998199
3.829636222,-0.246602774,0.14844051,9.679757118
3.879636222,-0.217872351,0.10295067,9.710882187
3.929636222,-0.260968,0.062249243,9.866505623
3.979636222,-0.20590134,0.160411507,9.713275909
4.029636222,-0.20590134,0.162805721,9.773131371
4.079636222,-0.246602774,0.141257897,9.785101891
4.129636222,-0.316034615,0.08379706,9.765948296
4.179636222,-0.260968,0.169988319,9.629479408
4.229636222,-0.222660765,0.114921682,9.768342972
4.279636222,-0.248996973,0.155623108,9.694122314
4.329636222,-0.280121595,0.059855044,9.773131371
4.379636222,-0.232237563,0.112527482,9.730035782
4.429636222,-0.284909993,0.155623108,9.655815125
4.479636222,-0.246602774,0.095768064,9.782708168
4.529636222,-0.241814375,0.069431849,9.749189377
4.579636222,-0.272938997,0.071826048,9.797073364
4.629636222,-0.198718742,0.107739076,9.629479408
4.679636222,-0.256179571,0.112527482,9.770736694
4.729636222,-0.320823014,-0.023942016,9.818621635
4.779636222,-0.196324542,0.100556471,9.758766174
4.829636222,-0.325611442,0.052672438,9.715670586
4.879636222,-0.237025961,0.124498487,9.708487511
4.929636222,-0.234631762,-0.016759412,9.821015358
4.979636222,-0.248996973,0.095768064,9.691728592
5.029636222,-0.258573771,0.045489833,9.720458984
5.079636222,-0.260968,0.105344877,9.665391922
5.129636222,-0.258573771,0.064643443,9.727641106
5.179636222,-0.260968,0.055066638,9.797073364
5.229636222,-0.265756398,0.067037649,9.813833237
5.279636222,-0.258573771,0.086191259,9.684545517
5.329636222,-0.260968,0.045489833,9.737217903
5.379636222,-0.248996973,0.122104287,9.686940193
5.429636222,-0.239420176,0.059855044,9.749189377
5.479636222,-0.287304193,-0.002394202,9.844957352
5.529636222,-0.292092621,0.126892686,9.710882187
5.579636222,-0.289698392,0.052672438,9.801861763
5.629636222,-0.234631762,0.095768064,9.684545517
5.679636222,-0.277727395,0.107739076,9.701305389
5.729636222,-0.248996973,0.059855044,9.713275909
5.779636222,-0.282515794,0.071826048,9.799467087
5.829636222,-0.299275219,0.090979666,9.722852707
5.879636222,-0.287304193,0.04070143,9.864110947
5.929636222,-0.256179571,0.069431849,9.770736694
5.979636222,-0.253785372,0.08379706,9.727641106
6.029636222,-0.248996973,0.067037649,9.662998199
6.079636222,-0.284909993,0.021547815,9.727641106
6.129636222,-0.292092621,0.095768064,9.658209801
6.179636222,-0.251391172,-0.011971008,9.864110947
6.229636222,-0.320823014,0.055066638,9.852140427
6.279636222,-0.265756398,0.095768064,9.720458984
6.329636222,-0.292092621,0.134075299,9.600749016
6.379636222,-0.215478152,0.052672438,9.909601212
6.429636222,-0.251391172,0.007182605,10.02931118
6.479636222,-0.306457818,-0.093373865,10.29506683
6.529636222,-0.344765037,-0.076614454,10.38365269
6.579636222,-0.256179571,0.134075299,10.0604353
6.629636222,-0.318428814,-0.098162271,10.15859795
6.679636222,-0.234631762,-0.02873042,9.777919769
6.729636222,-0.246602774,-0.1316811,9.87608242
6.779636222,-0.229843363,-0.079008654,9.938331604
6.829636222,-0.244208574,0.059855044,10.0364933
6.879636222,-0.282515794,0.04309563,9.943120003
6.929636222,-0.265756398,-0.057460841,10.15859795
6.979636222,-0.272938997,0.021547815,9.840168953
7.029636222,-0.289698392,-0.047884032,10.16099167
7.079636222,-0.244208574,-0.002394202,10.01973438
7.129636222,-0.323217243,0.007182605,9.967061996
7.179636222,-0.289698392,-0.052672438,10.21366405
7.229636222,-0.227449164,0.007182605,9.928754807
7.279636222,-0.292092621,-0.045489833,10.09156036
7.329636222,-0.287304193,0.031124622,9.835380554
7.379636222,-0.272938997,-0.021547815,10.05804157
7.429636222,-0.366312861,-0.064643443,10.13944435
7.479636222,-0.272938997,-0.02873042,10.22802925
7.529636222,-0.323217243,-0.01436521,10.13704967
7.579636222,-0.328005642,-0.026336219,10.03409958
7.629636222,-0.301669419,-0.04070143,9.928754807
7.679636222,-0.33518824,-0.095768064,10.06522369
7.729636222,-0.292092621,-0.01436521,10.09874249
7.779636222,-0.306457818,0.026336219,10.10831928
7.829636222,-0.275333196,-0.112527482,10.3357687
7.879636222,-0.304063618,-0.033518825,10.19211674
7.929636222,-0.299275219,-0.062249243,10.19451046
7.979636222,-0.270544797,-0.064643443,10.0364933
8.029636222,-0.244208574,-0.114921682,10.19211674
8.079636222,-0.196324542,-0.088585466,10.14662647
8.129636222,-0.289698392,-0.074220255,10.25915432
8.179636222,-0.270544797,-0.08379706,10.23042393
8.229636222,-0.299275219,-0.033518825,10.22802925
8.279636222,-0.263362199,-0.035913024,10.19929886
8.329636222,-0.270544797,-0.086191259,10.12986755
8.379636222,-0.265756398,-0.067037649,10.09874249
8.429636222,-0.301669419,-0.04070143,10.0269165
8.479636222,-0.268150598,0.019153614,9.828198433
8.529636222,-0.325611442,-0.026336219,9.832986832
8.579636222,-0.253785372,0.045489833,9.684545517
8.629636222,-0.232237563,0.076614454,9.773131371
8.679636222,-0.198718742,0.122104287,9.48343277
8.729636222,-0.227449164,0.062249243,9.732429504
8.779636222,-0.256179571,0.107739076,9.651026726
8.829636222,-0.270544797,0.021547815,9.83777523
8.879636222,-0.20350714,0.158017308,9.782708168
8.929636222,-0.337582439,-0.1316811,10.16338634
8.979636222,-0.318428814,-0.076614454,9.993397713
9.029636222,-0.225054964,0.16759412,9.600749016
9.079636222,-0.268150598,-0.023942016,9.622296333
9.129636222,-0.299275219,-0.007182605,9.562441826
9.179636222,-0.215478152,0.011971008,9.528923035
9.229636222,-0.229843363,0.119710088,9.710882187
9.279636222,-0.251391172,0.050278235,9.830592155
9.329636222,-0.284909993,0.031124622,10.02452278
9.379636222,-0.284909993,0.129286885,9.842563629
9.429636222,-0.241814375,0.098162271,9.622296333
9.479636222,-0.232237563,-0.064643443,9.804255486
9.529636222,-0.263362199,0.057460841,9.655815125
9.579636222,-0.172382519,0.14844051,9.48343277
9.629636222,-0.29688102,0.105344877,9.763554573
9.679636222,-0.280121595,0.14844051,9.749189377
9.729636222,-0.282515794,0.114921682,9.864110947
9.779636222,-0.246602774,0.160411507,9.758766174
9.829636222,-0.256179571,0.129286885,9.550470352
9.879636222,-0.246602774,0.050278235,9.595960617
9.929636222,-0.263362199,0.129286885,9.648633003
9.979636222,-0.241814375,0.165199921,9.696516991
10.02963622,-0.304063618,0.004788403,10.0317049
10.07963622,-0.299275219,0.155623108,9.813833237
10.12963622,-0.256179571,0.141257897,9.871294022
10.17963622,-0.253785372,0.165199921,9.631873131
10.22963622,-0.213083953,0.026336219,9.698910713
10.27963622,-0.172382519,0.126892686,9.545681953
10.32963622,-0.177170932,0.14844051,9.727641106
10.37963622,-0.246602774,0.04070143,9.909601212
10.42963622,-0.241814375,0.136469498,9.830592155
10.47963622,-0.263362199,0.100556471,9.866505623
10.52963622,-0.225054964,0.129286885,9.686940193
10.57963622,-0.16759412,0.045489833,9.694122314
10.62963622,-0.241814375,0.071826048,9.718064308
10.67963622,-0.232237563,0.169988319,9.533711433
10.72963622,-0.256179571,0.086191259,9.825803757
10.77963622,-0.268150598,0.119710088,9.749189377
10.82963622,-0.260968,0.105344877,9.854534149
10.87963622,-0.222660765,0.16759412,9.689333916
10.92963622,-0.248996973,0.126892686,9.59835434
10.97963622,-0.232237563,0.110133275,9.727641106
11.02963622,-0.251391172,0.100556471,9.722852707
11.07963622,-0.191536129,0.18435353,9.761159897
11.12963622,-0.239420176,0.155623108,9.854534149
11.17963622,-0.213083953,0.16759412,9.768342972
11.22963622,-0.20350714,0.119710088,9.789890289
11.27963622,-0.234631762,0.179565132,9.639056206
11.32963622,-0.282515794,0.146046311,9.653421402
11.37963622,-0.172382519,0.119710088,9.773131371
11.42963622,-0.246602774,0.141257897,9.701305389
11.47963622,-0.232237563,0.179565132,9.751583099
11.52963622,-0.241814375,0.172382519,9.672574997
11.57963622,-0.313640416,0.129286885,9.761159897
11.62963622,-0.244208574,0.136469498,9.773131371
11.67963622,-0.268150598,0.136469498,9.761159897
11.72963622,-0.244208574,0.143652096,9.658209801
11.77963622,-0.220266551,0.146046311,9.751583099
11.82963622,-0.272938997,0.122104287,9.708487511
11.87963622,-0.237025961,0.088585466,9.832986832
11.92963622,-0.244208574,0.172382519,9.651026726
11.97963622,-0.229843363,0.126892686,9.900024414
12.02963622,-0.241814375,0.1316811,9.749189377
12.07963622,-0.225054964,0.158017308,9.691728592
12.12963622,-0.248996973,0.107739076,9.674968719
12.17963622,-0.213083953,0.134075299,9.756371498
12.22963622,-0.229843363,0.138863698,9.665391922
12.27963622,-0.234631762,0.124498487,9.859322548
12.32963622,-0.275333196,0.179565132,9.703699112
12.37963622,-0.277727395,0.153228909,9.813833237
12.42963622,-0.289698392,0.14844051,9.765948296
12.47963622,-0.270544797,0.174776718,9.646238327
12.52963622,-0.256179571,0.138863698,9.643844604
12.57963622,-0.29688102,0.160411507,9.627084732
12.62963622,-0.241814375,0.086191259,9.809044838
12.67963622,-0.256179571,0.122104287,9.809044838
12.72963622,-0.268150598,0.088585466,9.923966408
12.77963622,-0.237025961,0.153228909,9.653421402
12.82963622,-0.260968,0.160411507,9.617507935
12.87963622,-0.268150598,0.052672438,9.574412346
12.92963622,-0.198718742,0.059855044,9.746794701
12.97963622,-0.270544797,0.071826048,9.694122314
13.02963622,-0.287304193,0.01436521,9.919178009
13.07963622,-0.292092621,0.045489833,9.801861763
13.12963622,-0.275333196,0.047884032,9.883264542
13.17963622,-0.248996973,0.112527482,9.646238327
13.22963622,-0.260968,0.033518825,9.634267807
13.27963622,-0.289698392,0.023942016,9.595960617
13.32963622,-0.270544797,0.035913024,9.603142738
13.37963622,-0.311246216,0.021547815,9.866505623
13.42963622,-0.306457818,0.031124622,9.928754807
13.47963622,-0.287304193,0.01436521,9.986215591
13.52963622,-0.272938997,0.021547815,9.84974575
13.57963622,-0.239420176,0.057460841,9.550470352
13.62963622,-0.311246216,0.01436521,9.684545517
13.67963622,-0.181959331,0.04309563,9.682151794
13.72963622,-0.232237563,0.117315881,9.627084732
13.77963622,-0.320823014,0.059855044,9.727641106
13.82963622,-0.299275219,0.079008654,9.868899345
13.87963622,-0.265756398,0.050278235,9.861717224
13.92963622,-0.308852017,0.004788403,9.919178009
13.97963622,-0.241814375,0.122104287,9.627084732
14.02963622,-0.287304193,-0.009576807,9.804255486
14.07963622,-0.272938997,0.117315881,9.591172218
14.12963622,-0.256179571,0.071826048,9.698910713
14.17963622,-0.292092621,0.107739076,9.725247383
14.22963622,-0.299275219,0.009576807,9.981427193
14.27963622,-0.351947635,0.134075299,9.696516991
14.32963622,-0.258573771,0.093373865,9.761159897
14.37963622,-0.237025961,0.081402861,9.684545517
14.42963622,-0.256179571,0.064643443,9.603142738
14.47963622,-0.256179571,0.074220255,9.689333916
14.52963622,-0.294486821,0.064643443,9.715670586
14.57963622,-0.270544797,0.107739076,9.787496567
14.62963622,-0.294486821,0.04070143,9.900024414
14.67963622,-0.263362199,0.10295067,9.880870819
14.72963622,-0.272938997,0.100556471,9.631873131
14.77963622,-0.253785372,0.04309563,9.660603523
14.82963622,-0.201112941,0.067037649,9.59835434
14.87963622,-0.225054964,0.055066638,9.713275909
14.92963622,-0.263362199,0.038307227,9.835380554
14.97963622,-0.263362199,0.134075299,9.780313492
15.02963622,-0.260968,0.090979666,9.758766174
15.07963622,-0.272938997,0.009576807,9.861717224
15.12963622,-0.258573771,-0.002394202,9.823410034
15.17963622,-0.248996973,0.08379706,9.722852707
15.22963622,-0.265756398,0.04309563,9.768342972
15.27963622,-0.253785372,0.062249243,9.720458984
15.32963622,-0.258573771,0.050278235,9.691728592
15.37963622,-0.241814375,0.079008654,9.701305389
15.42963622,-0.251391172,-0.007182605,9.83777523
15.47963622,-0.280121595,0.052672438,9.715670586
15.52963622,-0.246602774,0.117315881,9.665391922
15.57963622,-0.260968,0.079008654,9.821015358
15.62963622,-0.280121595,0.069431849,9.708487511
15.67963622,-0.280121595,0.026336219,9.746794701
15.72963622,-0.272938997,0.124498487,9.59835434
15.77963622,-0.260968,0.086191259,9.770736694
15.82963622,-0.215478152,0.047884032,9.801861763
15.87963622,-0.289698392,0.047884032,9.828198433
15.92963622,-0.241814375,0.143652096,9.674968719
15.97963622,-0.241814375,0.088585466,9.698910713
16.02963622,-0.330399841,0.057460841,9.689333916
16.07963622,-0.282515794,0.01436521,9.830592155
16.12963622,-0.229843363,0.165199921,9.576807022
16.17963622,-0.280121595,0.090979666,9.83777523
16.22963622,-0.263362199,0.093373865,9.708487511
16.27963622,-0.306457818,0.002394202,9.878476143
16.32963622,-0.237025961,0.138863698,9.727641106
16.37963622,-0.304063618,0.098162271,9.672574997
16.42963622,-0.282515794,0.045489833,9.775525093
16.47963622,-0.33518824,0.055066638,9.612719536
16.52963622,-0.263362199,0.098162271,9.631873131
16.57963622,-0.234631762,0.059855044,9.842563629
16.62963622,-0.282515794,0.107739076,9.773131371
16.67963622,-0.292092621,0.052672438,9.873687744
16.72963622,-0.280121595,0.14844051,9.713275909
16.77963622,-0.275333196,0.10295067,9.734824181
16.82963622,-0.275333196,0.026336219,9.768342972
16.87963622,-0.232237563,0.10295067,9.686940193
16.92963622,-0.287304193,0.064643443,9.806650162
16.97963622,-0.234631762,0.126892686,9.739612579
17.02963622,-0.244208574,0.1316811,9.694122314
17.07963622,-0.229843363,0.069431849,9.789890289
17.12963622,-0.225054964,0.122104287,9.655815125
17.17963622,-0.268150598,0.112527482,9.739612579
17.22963622,-0.270544797,0.047884032,9.828198433
17.27963622,-0.330399841,0.117315881,9.718064308
17.32963622,-0.20350714,0.122104287,9.830592155
17.37963622,-0.20350714,0.196324542,9.634267807
17.42963622,-0.280121595,0.035913024,9.722852707
17.47963622,-0.29688102,0.038307227,9.753977776
17.52963622,-0.263362199,0.177170932,9.627084732
17.57963622,-0.272938997,0.114921682,9.706093788
17.62963622,-0.256179571,0.069431849,9.84974575
17.67963622,-0.275333196,0.08379706,9.835380554
17.72963622,-0.215478152,0.124498487,9.816226959
17.77963622,-0.268150598,0.105344877,9.674968719
17.82963622,-0.263362199,0.064643443,9.742006302
17.87963622,-0.256179571,0.10295067,9.583989143
17.92963622,-0.217872351,0.110133275,9.670180321
17.97963622,-0.260968,0.035913024,9.787496567
18.02963622,-0.280121595,0.004788403,9.940725327
18.07963622,-0.256179571,0.177170932,9.619902611
18.12963622,-0.196324542,0.100556471,9.92636013
18.17963622,-0.232237563,0.045489833,9.83777523
18.22963622,-0.256179571,0.064643443,9.785101891
18.27963622,-0.248996973,0.136469498,9.615114212
18.32963622,-0.246602774,0.129286885,9.543288231
18.37963622,-0.270544797,0.050278235,9.715670586
18.42963622,-0.244208574,0.057460841,9.842563629
18.47963622,-0.253785372,0.112527482,9.780313492
18.52963622,-0.248996973,0.126892686,9.878476143
18.57963622,-0.237025961,0.088585466,9.749189377
18.62963622,-0.251391172,0.110133275,9.866505623
18.67963622,-0.18435353,0.179565132,9.627084732
18.72963622,-0.18674773,0.153228909,9.641449928
18.77963622,-0.244208574,0.10295067,9.653421402
18.82963622,-0.232237563,0.107739076,9.823410034
18.87963622,-0.280121595,0.172382519,9.605537415
18.92963622,-0.158017308,0.196324542,9.749189377
18.97963622,-0.220266551,0.090979666,9.785101891
19.02963622,-0.215478152,0.105344877,9.794678688
19.07963622,-0.213083953,0.14844051,9.682151794
19.12963622,-0.272938997,0.162805721,9.706093788
19.17963622,-0.272938997,0.122104287,9.777919769
19.22963622,-0.237025961,0.100556471,9.878476143
19.27963622,-0.234631762,0.146046311,9.746794701
19.32963622,-0.253785372,0.160411507,9.715670586
19.37963622,-0.237025961,0.119710088,9.667786598
19.42963622,-0.256179571,0.093373865,9.744400978
19.47963622,-0.201112941,0.160411507,9.694122314
19.52963622,-0.246602774,0.107739076,9.844957352
19.57963622,-0.229843363,0.134075299,9.797073364
19.62963622,-0.275333196,0.129286885,9.749189377
19.67963622,-0.282515794,0.100556471,9.830592155
19.72963622,-0.191536129,0.165199921,9.643844604
19.77963622,-0.239420176,0.079008654,9.648633003
19.82963622,-0.232237563,0.045489833,9.679757118
19.87963622,-0.234631762,0.141257897,9.562441826
19.92963622,-0.277727395,0.026336219,9.856928825
19.97963622,-0.232237563,0.08379706,9.835380554
20.02963622,-0.198718742,0.165199921,9.780313492
20.07963622,-0.232237563,0.100556471,9.722852707
20.12963622,-0.174776718,0.110133275,9.504981041
20.17963622,-0.244208574,-0.026336219,9.720458984
20.22963622,-0.162805721,0.055066638,9.799467087
20.27963622,-0.220266551,0.134075299,9.911994934
20.32963622,-0.244208574,0.119710088,9.890447617
20.37963622,-0.234631762,0.095768064,9.911994934
20.42963622,-0.251391172,0.04309563,9.761159897
20.47963622,-0.181959331,0.079008654,9.634267807
20.52963622,-0.158017308,0.071826048,9.526528358
20.57963622,-0.20590134,0.055066638,9.567230225
20.62963622,-0.177170932,0.076614454,9.660603523
20.67963622,-0.215478152,0.064643443,9.787496567
20.72963622,-0.191536129,0.114921682,9.861717224
20.77963622,-0.191536129,0.045489833,9.943120003
20.82963622,-0.234631762,-0.004788403,9.971850395
20.87963622,-0.196324542,0.067037649,9.799467087
20.92963622,-0.169988319,0.069431849,9.686940193
20.97963622,-0.189141929,0.14844051,9.488221169
21.02963622,-0.177170932,0.009576807,9.634267807
21.07963622,-0.20590134,0.004788403,9.737217903
21.12963622,-0.177170932,0.114921682,9.706093788
21.17963622,-0.229843363,0.110133275,9.792284966
21.22963622,-0.165199921,0.100556471,9.84974575
21.27963622,-0.234631762,-0.064643443,9.84974575
21.32963622,-0.158017308,0.16759412,9.469067574
21.37963622,-0.158017308,0.222660765,9.370905876
21.42963622,-0.215478152,0.158017308,9.370905876
21.47963622,-0.172382519,-0.002394202,9.682151794
21.52963622,-0.20590134,0.100556471,9.617507935
21.57963622,-0.169988319,0.270544797,9.33020401
21.62963622,-0.196324542,0.18435353,9.382876396
21.67963622,-0.162805721,0.248996973,8.999804497
21.72963622,-0.179565132,0.292092621,8.779537201
21.77963622,-0.107739076,0.387860686,8.647856712
21.82963622,-0.064643443,0.531512797,8.63109684
21.87963622,-0.246602774,0.390254885,8.973467827
21.92963622,-0.122104287,0.423773706,9.332598686
21.97963622,-0.210689753,0.392649084,9.457097054
22.02963622,-0.143652096,0.399831682,9.619902611
22.07963622,-0.201112941,0.320823014,9.44512558
22.12963622,-0.193930343,0.299275219,9.191340446
22.17963622,-0.155623108,0.232237563,9.220070839
22.22963622,-0.18435353,0.29688102,9.126696587
22.27963622,-0.181959331,0.328005642,9.181763649
22.32963622,-0.177170932,0.275333196,9.40681839
22.37963622,-0.158017308,0.33279404,9.464279175
22.42963622,-0.122104287,0.354341865,9.373299599
22.47963622,-0.193930343,0.284909993,9.459490776
22.52963622,-0.146046311,0.349553436,9.167398453
22.57963622,-0.220266551,0.210689753,9.241618156
22.62963622,-0.162805721,0.244208574,9.342175484
22.67963622,-0.20590134,0.308852017,9.344569206
22.72963622,-0.155623108,0.270544797,9.488221169
22.77963622,-0.246602774,0.265756398,9.423578262
22.82963622,-0.196324542,0.263362199,9.550470352
22.87963622,-0.217872351,0.246602774,9.591172218
22.92963622,-0.18674773,0.270544797,9.634267807
22.97963622,-0.239420176,0.234631762,9.720458984
23.02963622,-0.222660765,0.246602774,9.801861763
23.07963622,-0.177170932,0.213083953,9.995792389
23.12963622,-0.237025961,0.213083953,9.957485199
23.17963622,-0.18674773,0.268150598,9.842563629
23.22963622,-0.244208574,0.165199921,9.830592155
23.27963622,-0.201112941,0.217872351,9.631873131
23.32963622,-0.122104287,0.179565132,9.643844604
23.37963622,-0.14844051,0.217872351,9.504981041
23.42963622,-0.208295554,0.112527482,9.665391922
23.47963622,-0.20350714,0.105344877,9.859322548
23.52963622,-0.225054964,0.246602774,9.631873131
23.57963622,-0.191536129,0.172382519,9.821015358
23.62963622,-0.210689753,0.098162271,9.895236015
23.67963622,-0.220266551,0.052672438,9.825803757
23.72963622,-0.201112941,0.122104287,9.770736694
23.77963622,-0.160411507,0.18435353,9.629479408
23.82963622,-0.160411507,0.136469498,9.775525093
23.87963622,-0.210689753,0.069431849,9.782708168
23.92963622,-0.193930343,0.059855044,9.821015358
23.97963622,-0.270544797,0.136469498,9.662998199
24.02963622,-0.177170932,0.143652096,9.732429504
24.07963622,-0.141257897,0.093373865,9.787496567
24.12963622,-0.237025961,0.076614454,9.732429504
24.17963622,-0.215478152,0.107739076,9.782708168
24.22963622,-0.248996973,0.124498487,9.710882187
24.27963622,-0.18674773,0.08379706,9.840168953
24.32963622,-0.210689753,0.098162271,9.722852707
24.37963622,-0.165199921,0.134075299,9.627084732
24.42963622,-0.172382519,0.095768064,9.682151794
24.47963622,-0.18435353,0.107739076,9.727641106
24.52963622,-0.16759412,0.095768064,9.818621635
24.57963622,-0.177170932,0.1316811,9.825803757
24.62963622,-0.217872351,0.129286885,9.835380554
24.67963622,-0.179565132,0.107739076,9.696516991
24.72963622,-0.270544797,0.059855044,9.720458984
24.77963622,-0.105344877,0.112527482,9.794678688
24.82963622,-0.181959331,0.210689753,9.653421402
24.87963622,-0.20590134,0.141257897,9.821015358
24.92963622,-0.20350714,0.126892686,9.691728592
24.97963622,-0.246602774,0.105344877,9.785101891
25.02963622,-0.225054964,0.179565132,9.739612579
25.07963622,-0.20590134,0.155623108,9.706093788
25.12963622,-0.220266551,0.114921682,9.718064308
25.17963622,-0.20350714,0.10295067,9.756371498
25.22963622,-0.217872351,0.105344877,9.730035782
25.27963622,-0.174776718,0.10295067,9.758766174
25.32963622,-0.208295554,0.076614454,9.713275909
25.37963622,-0.213083953,0.076614454,9.765948296
25.42963622,-0.210689753,0.04309563,9.84974575
25.47963622,-0.210689753,0.129286885,9.662998199
25.52963622,-0.208295554,0.088585466,9.785101891
25.57963622,-0.158017308,0.112527482,9.758766174
25.62963622,-0.198718742,0.093373865,9.677363396
25.67963622,-0.20350714,0.088585466,9.761159897
25.72963622,-0.222660765,0.146046311,9.674968719
25.77963622,-0.246602774,0.117315881,9.792284966
25.82963622,-0.201112941,0.098162271,9.821015358
25.87963622,-0.208295554,0.08379706,9.730035782
25.92963622,-0.18674773,0.067037649,9.813833237
25.97963622,-0.162805721,0.107739076,9.730035782
26.02963622,-0.169988319,0.052672438,9.83777523
26.07963622,-0.201112941,0.110133275,9.677363396
26.12963622,-0.179565132,0.122104287,9.727641106
26.17963622,-0.179565132,0.059855044,9.708487511
26.22963622,-0.217872351,0.052672438,9.734824181
26.27963622,-0.160411507,0.059855044,9.809044838
26.32963622,-0.177170932,0.064643443,9.907206535
26.37963622,-0.253785372,0.076614454,9.739612579
26.42963622,-0.196324542,0.067037649,9.765948296
26.47963622,-0.256179571,0.088585466,9.605537415
26.52963622,-0.181959331,0.052672438,9.746794701
26.57963622,-0.193930343,-0.026336219,9.81143856
26.62963622,-0.189141929,0.047884032,9.775525093
26.67963622,-0.244208574,-0.033518825,9.696516991
26.72963622,-0.174776718,0.193930343,9.085995674
26.77963622,-0.093373865,0.517147541,8.66940403
26.82963622,-0.229843363,-0.10295067,9.454702377
26.87963622,-0.306457818,-0.272938997,10.20648193
26.92963622,-0.143652096,0.079008654,9.923966408
26.97963622,-0.146046311,0.134075299,10.04367638
27.02963622,-0.174776718,0.136469498,9.981427193
27.07963622,-0.20350714,-0.208295554,10.02931118
27.12963622,-0.227449164,-0.031124622,9.47146225
27.17963622,-0.234631762,-0.002394202,9.655815125
27.22963622,-0.191536129,0.10295067,9.593565941
27.27963622,-0.220266551,0.004788403,9.907206535
27.32963622,-0.191536129,0.057460841,9.787496567
27.37963622,-0.241814375,-0.071826048,9.933543205
27.42963622,-0.232237563,0.01436521,9.646238327
27.47963622,-0.246602774,0.009576807,9.713275909
27.52963622,-0.217872351,0.009576807,9.670180321
27.57963622,-0.208295554,-0.019153614,9.758766174
27.62963622,-0.222660765,0.007182605,9.713275909
27.67963622,-0.208295554,-0.033518825,9.847352028
27.72963622,-0.237025961,0.038307227,9.639056206
27.77963622,-0.177170932,-0.04070143,9.854534149
27.82963622,-0.18435353,0.01436521,9.727641106
27.87963622,-0.208295554,0.035913024,9.686940193
27.92963622,-0.287304193,-0.019153614,9.698910713
27.97963622,-0.225054964,-0.016759412,9.734824181
28.02963622,-0.222660765,-0.004788403,9.727641106
28.07963622,-0.165199921,0.002394202,9.852140427
28.12963622,-0.198718742,-0.035913024,9.785101891
28.17963622,-0.20590134,0.026336219,9.794678688
28.22963622,-0.20590134,0.02873042,9.670180321
28.27963622,-0.114921682,0.016759412,9.785101891
28.32963622,-0.20350714,0.019153614,9.670180321
28.37963622,-0.165199921,0.009576807,9.773131371
28.42963622,-0.198718742,0.01436521,9.658209801
28.47963622,-0.222660765,-0.10295067,9.742006302
28.52963622,-0.129286885,-0.002394202,9.720458984
28.57963622,-0.18674773,0.114921682,9.562441826
28.62963622,-0.165199921,-0.052672438,9.907206535
28.67963622,-0.246602774,-0.057460841,9.708487511
28.72963622,-0.217872351,-0.093373865,9.902418137
28.77963622,-0.20350714,-0.069431849,9.83777523
28.82963622,-0.193930343,0.047884032,9.689333916
28.87963622,-0.20350714,0,9.737217903
28.92963622,-0.181959331,-0.069431849,9.777919769
28.97963622,-0.172382519,-0.04070143,9.720458984
29.02963622,-0.208295554,0.021547815,9.713275909
29.07963622,-0.213083953,0.019153614,9.765948296
29.12963622,-0.256179571,-0.035913024,9.758766174
29.17963622,-0.232237563,0.016759412,9.718064308
29.22963622,-0.153228909,-0.033518825,9.832986832
29.27963622,-0.174776718,0.02873042,9.706093788
29.32963622,-0.20350714,-0.033518825,9.744400978
29.37963622,-0.234631762,-0.059855044,9.739612579
29.42963622,-0.177170932,0.023942016,9.720458984
29.47963622,-0.20590134,-0.035913024,9.787496567
29.52963622,-0.189141929,-0.035913024,9.797073364
29.57963622,-0.213083953,-0.023942016,9.703699112
29.62963622,-0.189141929,-0.011971008,9.753977776
29.67963622,-0.181959331,-0.045489833,9.701305389
29.72963622,-0.165199921,-0.007182605,9.746794701
29.77963622,-0.201112941,-0.019153614,9.852140427
29.82963622,-0.20590134,-0.011971008,9.768342972
29.87963622,-0.198718742,0.045489833,9.58638382
29.92963622,-0.119710088,-0.088585466,9.761159897
29.97963622,-0.169988319,-0.095768064,9.708487511
30.02963622,-0.191536129,-0.02873042,9.710882187
30.07963622,-0.165199921,-0.081402861,9.835380554
30.12963622,-0.18435353,-0.035913024,9.806650162
30.17963622,-0.210689753,-0.134075299,9.868899345
30.22963622,-0.258573771,-0.04070143,9.713275909
30.27963622,-0.306457818,-0.01436521,9.751583099
30.32963622,-0.349553436,-0.031124622,9.655815125
30.37963622,-0.320823014,-0.031124622,9.943120003
30.42963622,-0.232237563,0.002394202,9.701305389
30.47963622,-0.090979666,0.004788403,9.739612579
30.52963622,-0.220266551,-0.011971008,9.524134636
30.57963622,-0.18435353,-0.038307227,9.603142738
30.62963622,-0.112527482,-0.026336219,9.622296333
30.67963622,-0.277727395,-0.069431849,9.789890289
30.72963622,-0.198718742,0.002394202,9.864110947
30.77963622,-0.248996973,-0.059855044,9.852140427
30.82963622,-0.136469498,-0.088585466,9.792284966
30.87963622,-0.019153614,0.059855044,9.493009567
30.92963622,-0.021547815,-0.052672438,9.701305389
30.97963622,-0.100556471,-0.031124622,9.593565941
31.02963622,0.055066638,0.112527482,9.607931137
31.07963622,-0.01436521,0.021547815,9.797073364
31.12963622,0.01436521,0.095768064,9.832986832
31.17963622,-0.241814375,0.323217243,9.583989143
31.22963622,-0.794874966,-0.713472128,10.70208168
31.27963622,-0.328005642,0.052672438,9.579200745
31.32963622,-0.490811348,-0.067037649,9.600749016
31.37963622,-0.363918662,0.007182605,9.775525093
31.42963622,-0.268150598,-0.055066638,9.737217903
31.47963622,-0.237025961,-0.079008654,10.08916569
31.52963622,-0.234631762,-0.074220255,9.902418137
31.57963622,-0.191536129,-0.047884032,9.481039047
31.62963622,-0.29688102,0.20590134,9.267954826
31.67963622,-0.440533102,-0.256179571,10.0556469
31.72963622,-0.282515794,-0.581790984,10.00536919
31.77963622,-0.210689753,-0.308852017,9.502586365
31.82963622,-0.007182605,-0.179565132,9.507374763
31.87963622,-0.141257897,0.04309563,9.713275909
31.92963622,-0.478840351,-0.055066638,9.928754807
31.97963622,-0.177170932,0.189141929,9.665391922
32.02963622,-0.253785372,0.165199921,9.409213066
32.07963622,-0.407014281,-0.100556471,9.737217903
32.12963622,-0.383072257,0.08379706,9.469067574
32.17963622,-0.770932972,-0.509964943,10.41477776
32.22963622,-0.471657723,0.126892686,9.720458984
32.27963622,-0.268150598,0.414196909,9.311050415
32.32963622,-0.478840351,-0.067037649,9.782708168
32.37963622,-0.320823014,0.004788403,9.655815125
32.42963622,-0.299275219,0.14844051,9.854534149
32.47963622,-0.37349546,-0.045489833,10.13944435
32.52963622,-0.18435353,-0.189141929,9.835380554
32.57963622,-0.114921682,-0.198718742,9.801861763
32.62963622,-0.292092621,-0.153228909,9.528923035
32.67963622,-0.387860686,-0.076614454,9.629479408
32.72963622,-0.512359142,-0.636857629,10.14423275
32.77963622,-0.553060591,-0.51954174,9.746794701
32.82963622,-0.246602774,-0.162805721,9.296685219
32.87963622,-0.160411507,-0.229843363,9.689333916
32.92963622,-0.51954174,-0.100556471,9.871294022
32.97963622,-0.663193882,-0.026336219,9.950302124
33.02963622,-0.392649084,0.179565132,9.662998199
33.07963622,-0.172382519,0.04070143,9.787496567
33.12963622,-0.241814375,-0.126892686,9.686940193
33.17963622,-0.256179571,-0.124498487,9.543288231
33.22963622,-0.581790984,-0.414196909,9.806650162
33.27963622,-0.385466486,0.023942016,9.478644371
33.32963622,-0.354341865,0.270544797,9.449913979
33.37963622,-0.656011283,0.011971008,9.96466732
33.42963622,-0.478840351,-0.256179571,10.15859795
33.47963622,-0.397437483,0.088585466,9.742006302
33.52963622,-0.356736064,0.134075299,9.825803757
33.57963622,-0.433350503,-0.201112941,9.830592155
33.62963622,-0.404620081,-0.246602774,9.63666153
33.67963622,-0.490811348,-0.191536129,9.504981041
33.72963622,-0.548272193,0.08379706,9.555258751
33.77963622,-0.656011283,-0.313640416,10.0460701
33.82963622,-0.78050977,-0.555454791,9.83777523
33.87963622,-0.354341865,-0.280121595,9.56004715
33.92963622,-0.169988319,-0.107739076,9.512163162
33.97963622,-0.378283858,-0.201112941,9.706093788
34.02963622,-0.524330199,-0.021547815,9.698910713
34.07963622,-0.411802679,0.071826048,9.777919769
34.12963622,-0.265756398,0.222660765,9.682151794
34.17963622,-0.160411507,0.124498487,9.883264542
34.22963622,-0.428562105,-0.20590134,10.0556469
34.27963622,-0.768538773,-0.339976639,9.828198433
34.32963622,-0.395043284,0.062249243,9.593565941
34.37963622,-0.378283858,0.090979666,9.698910713
34.42963622,-0.679953277,-0.01436521,9.627084732
34.47963622,-0.560243189,0.002394202,9.689333916
34.52963622,-0.627280831,0.057460841,9.844957352
34.57963622,-0.672770679,-0.004788403,9.828198433
34.62963622,-0.454898328,-0.090979666,9.655815125
34.67963622,-0.450109929,-0.122104287,9.643844604
34.72963622,-0.488417149,-0.047884032,9.59835434
34.77963622,-0.44771573,0.272938997,9.593565941
34.82963622,-0.67037648,-0.354341865,9.998186111
34.87963622,-0.751779318,-0.251391172,9.583989143
34.92963622,-0.493205547,-0.241814375,9.773131371
34.97963622,-0.217872351,-0.270544797,9.797073364
35.02963622,-0.20590134,-0.105344877,9.526528358
35.07963622,-0.426167905,-0.052672438,9.665391922
35.12963622,-0.59615624,-0.105344877,9.856928825
35.17963622,-0.505176544,-0.105344877,10.07480049
35.22963622,-0.071826048,0.210689753,9.495404243
35.27963622,0.004788403,0.031124622,9.572018623
35.32963622,-0.337582439,-0.416591108,9.785101891
35.37963622,-0.495599747,-0.390254885,9.897629738
35.42963622,0.038307227,0.268150598,9.569623947
35.47963622,-0.258573771,0.347159237,9.512163162
35.52963622,-0.672770679,-0.098162271,9.892841339
35.57963622,-0.718260527,-0.150834709,9.727641106
35.62963622,-0.569819987,-0.007182605,9.971850395
35.67963622,-0.737414122,0.079008654,9.852140427
35.72963622,-0.730231524,-0.143652096,9.883264542
35.77963622,-0.708683729,-0.162805721,9.572018623
35.82963622,-0.756567717,-0.122104287,9.595960617
35.87963622,-0.687135875,-0.201112941,9.823410034
35.92963622,-0.550666392,-0.414196909,9.847352028
35.97963622,-0.48362875,-0.339976639,9.720458984
36.02963622,-0.208295554,-0.134075299,9.44512558
36.07963622,-0.04309563,-0.339976639,9.825803757
36.12963622,-0.16759412,-0.02873042,9.459490776
36.17963622,-0.155623108,-0.04309563,9.777919769
36.22963622,-0.217872351,0.093373865,9.761159897
36.27963622,-0.076614454,0.064643443,9.933543205
36.32963622,-0.122104287,-0.076614454,9.770736694
36.37963622,-0.423773706,-0.18435353,9.691728592
36.42963622,-0.37349546,-0.146046311,9.761159897
36.47963622,-0.548272193,-0.153228909,9.88805294
36.52963622,-0.775721371,0.165199921,9.514557838
36.57963622,-0.749385119,0.112527482,9.830592155
36.62963622,-0.756567717,0.04070143,9.916783333
36.67963622,-0.658405483,0.076614454,10.03409958
36.72963622,-0.675164878,-0.088585466,10.14902115
36.77963622,-0.466869324,-0.055066638,9.528923035
36.82963622,-0.289698392,-0.29688102,9.454702377
36.87963622,-0.282515794,0.122104287,9.121908188
36.92963622,-0.395043284,-0.146046311,9.940725327
36.97963622,-0.287304193,-0.59376204,10.30943298
37.02963622,-0.110133275,-0.387860686,9.890447617
37.07963622,-0.181959331,-0.347159237,9.44512558
37.12963622,-0.134075299,-0.177170932,9.244012833
37.17963622,-0.174776718,-0.16759412,9.617507935
37.22963622,-0.301669419,-0.227449164,9.962273598
37.27963622,-0.20590134,0.071826048,9.806650162
37.32963622,-0.04309563,0.038307227,9.92636013
37.37963622,-0.122104287,-0.112527482,9.583989143
37.42963622,-0.301669419,0.002394202,9.232041359
37.47963622,-0.536301196,-0.509964943,10.09634876
37.52963622,-0.414196909,-0.220266551,9.832986832
37.57963622,-0.208295554,0.220266551,9.466673851
37.62963622,-0.502782345,0.158017308,9.677363396
37.67963622,-0.641646028,-0.150834709,10.01015759
37.72963622,-0.466869324,-0.122104287,9.852140427
37.77963622,-0.490811348,-0.119710088,9.871294022
37.82963622,-0.416591108,0.033518825,9.662998199
37.87963622,-0.217872351,-0.241814375,9.818621635
37.92963622,-0.213083953,-0.356736064,9.871294022
37.97963622,-0.323217243,-0.100556471,9.428366661
38.02963622,-0.169988319,-0.610521436,10.11550236
38.07963622,-0.33518824,-0.311246216,9.907206535
38.12963622,-0.359130263,-0.181959331,9.48343277
38.17963622,0.035913024,-0.241814375,9.567230225
38.22963622,-0.052672438,-0.191536129,9.583989143
38.27963622,-0.289698392,-0.1316811,9.794678688
38.32963622,-0.229843363,0.095768064,10.01255131
38.37963622,-0.275333196,0.277727395,9.940725327
38.42963622,-0.047884032,0.146046311,9.976638794
38.47963622,-0.16759412,-0.117315881,9.610325813
38.52963622,-0.076614454,0.114921682,9.255983353
38.57963622,-0.232237563,0.18674773,9.363722801
38.62963622,-0.397437483,-0.308852017,10.02931118
38.67963622,-0.33279404,0.198718742,9.296685219
38.72963622,-0.079008654,0.440533102,9.485827446
38.77963622,-0.378283858,0.079008654,9.801861763
38.82963622,-0.598550439,-0.225054964,10.00536919
38.87963622,-0.608127236,0.126892686,9.533711433
38.92963622,-0.627280831,0.442927301,9.476250648
38.97963622,-0.536301196,0.007182605,10.26394272
39.02963622,-0.572214186,0,9.818621635
39.07963622,-0.584185243,-0.069431849,9.818621635
39.12963622,-0.114921682,-0.16759412,9.706093788
39.17963622,0.153228909,-0.179565132,10.06282997
39.22963622,-0.158017308,0.160411507,9.18894577
39.27963622,0.007182605,0.107739076,9.516951561
39.32963622,0.098162271,-0.019153614,9.866505623
39.37963622,-0.10295067,0.071826048,9.981427193
39.42963622,-0.158017308,0.18674773,9.959878922
39.47963622,-0.062249243,0.213083953,9.852140427
39.52963622,0.10295067,0.01436521,9.993397713
39.57963622,0.136469498,-0.107739076,9.787496567
39.62963622,0.179565132,0.129286885,9.619902611
39.67963622,-0.04070143,0.179565132,9.763554573
39.72963622,0.002394202,0.33279404,9.275136948
39.77963622,0.14844051,0.04309563,9.799467087
39.82963622,-0.208295554,-0.256179571,9.732429504
39.87963622,-0.143652096,0.007182605,9.59835434
39.92963622,-0.002394202,0.359130263,9.725247383
39.97963622,-0.141257897,0.095768064,9.950302124
40.02963622,-0.18435353,-0.069431849,9.933543205
40.07963622,-0.079008654,0.093373865,9.672574997
40.12963622,-0.069431849,0.141257897,9.500192642
40.17963622,-0.086191259,0.093373865,9.792284966
40.22963622,-0.031124622,0.181959331,9.634267807
40.27963622,-0.011971008,0.153228909,9.892841339
40.32963622,-0.14844051,0.071826048,9.844957352
40.37963622,-0.143652096,0.160411507,9.648633003
40.42963622,-0.069431849,0.20350714,9.739612579
40.47963622,-0.079008654,0.191536129,9.797073364
40.52963622,-0.126892686,0.155623108,9.794678688
40.57963622,-0.117315881,0.18674773,9.677363396
40.62963622,-0.105344877,0.246602774,9.634267807
40.67963622,-0.129286885,0.16759412,9.756371498
40.72963622,-0.100556471,0.232237563,9.768342972
40.77963622,-0.081402861,0.237025961,9.775525093
40.82963622,-0.052672438,0.239420176,9.830592155
40.87963622,-0.045489833,0.260968,9.758766174
40.92963622,-0.04309563,0.244208574,9.720458984
40.97963622,-0.074220255,0.258573771,9.691728592
41.02963622,-0.105344877,0.275333196,9.646238327
41.07963622,-0.047884032,0.328005642,9.648633003
41.12963622,-0.04309563,0.272938997,9.868899345
41.17963622,-0.04070143,0.308852017,9.821015358
41.22963622,-0.002394202,0.289698392,9.768342972
41.27963622,-0.021547815,0.284909993,9.737217903
41.32963622,-0.04309563,0.277727395,9.689333916
41.37963622,-0.026336219,0.241814375,9.725247383
41.42963622,-0.069431849,0.284909993,9.574412346
41.47963622,-0.050278235,0.258573771,9.698910713
41.52963622,-0.079008654,0.14844051,9.801861763
41.57963622,-0.035913024,0.263362199,9.794678688
41.62963622,-0.009576807,0.215478152,9.821015358
41.67963622,-0.124498487,0.246602774,9.679757118
41.72963622,0.004788403,0.174776718,9.782708168
41.77963622,-0.067037649,0.20350714,9.720458984
41.82963622,-0.04309563,0.210689753,9.725247383
41.87963622,-0.110133275,0.179565132,9.763554573
41.92963622,-0.057460841,0.237025961,9.679757118
41.97963622,-0.069431849,0.177170932,9.785101891
42.02963622,-0.100556471,0.20590134,9.756371498
42.07963622,-0.090979666,0.20350714,9.694122314
42.12963622,-0.067037649,0.143652096,9.856928825
42.17963622,-0.117315881,0.189141929,9.727641106
42.22963622,-0.062249243,0.201112941,9.746794701
42.27963622,-0.122104287,0.16759412,9.634267807
42.32963622,-0.086191259,0.189141929,9.801861763
42.37963622,-0.112527482,0.232237563,9.679757118
42.42963622,-0.088585466,0.172382519,9.730035782
42.47963622,-0.090979666,0.220266551,9.667786598
42.52963622,-0.129286885,0.220266551,9.713275909
42.57963622,-0.129286885,0.227449164,9.758766174
42.62963622,-0.079008654,0.172382519,9.828198433
42.67963622,-0.10295067,0.244208574,9.672574997
42.72963622,-0.057460841,0.179565132,9.828198433
42.77963622,-0.098162271,0.246602774,9.734824181
42.82963622,-0.088585466,0.189141929,9.782708168
42.87963622,-0.08379706,0.241814375,9.708487511
42.92963622,-0.158017308,0.229843363,9.59835434
42.97963622,-0.074220255,0.225054964,9.804255486
43.02963622,-0.04309563,0.256179571,9.787496567
43.07963622,-0.093373865,0.227449164,9.765948296
43.12963622,-0.141257897,0.229843363,9.751583099
43.17963622,-0.090979666,0.260968,9.713275909
43.22963622,-0.150834709,0.210689753,9.763554573
43.27963622,-0.088585466,0.20590134,9.835380554
43.32963622,-0.119710088,0.251391172,9.677363396
43.37963622,-0.045489833,0.244208574,9.718064308
43.42963622,-0.062249243,0.272938997,9.706093788
43.47963622,-0.08379706,0.222660765,9.799467087
43.52963622,-0.095768064,0.263362199,9.679757118
43.57963622,-0.134075299,0.210689753,9.713275909
43.62963622,-0.067037649,0.244208574,9.701305389
43.67963622,-0.031124622,0.210689753,9.832986832
43.72963622,-0.035913024,0.287304193,9.727641106
43.77963622,-0.10295067,0.196324542,9.773131371
43.82963622,-0.119710088,0.241814375,9.727641106
43.87963622,-0.105344877,0.256179571,9.765948296
43.92963622,-0.088585466,0.213083953,9.746794701
43.97963622,-0.033518825,0.289698392,9.603142738
44.02963622,-0.069431849,0.172382519,9.813833237
44.07963622,-0.064643443,0.225054964,9.761159897
44.12963622,-0.057460841,0.272938997,9.725247383
44.17963622,-0.04070143,0.227449164,9.751583099
44.22963622,-0.122104287,0.217872351,9.768342972
44.27963622,-0.146046311,0.201112941,9.627084732
44.32963622,-0.047884032,0.234631762,9.639056206
44.37963622,-0.035913024,0.234631762,9.765948296
44.42963622,-0.055066638,0.225054964,9.928754807
44.47963622,-0.114921682,0.189141929,9.856928825
44.52963622,-0.08379706,0.272938997,9.595960617
44.57963622,-0.1316811,0.134075299,9.753977776
44.62963622,-0.071826048,0.20590134,9.672574997
44.67963622,-0.074220255,0.16759412,9.816226959
44.72963622,-0.114921682,0.234631762,9.698910713
44.77963622,-0.079008654,0.177170932,9.809044838
44.82963622,-0.10295067,0.201112941,9.720458984
44.87963622,-0.098162271,0.165199921,9.792284966
44.92963622,-0.117315881,0.158017308,9.701305389
44.97963622,-0.086191259,0.193930343,9.713275909
45.02963622,-0.155623108,0.141257897,9.751583099
45.07963622,-0.138863698,0.172382519,9.607931137
45.12963622,-0.064643443,0.201112941,9.696516991
45.17963622,-0.093373865,0.318428814,9.689333916
45.22963622,-0.100556471,0.100556471,10.01973438
45.27963622,-0.086191259,0.18435353,9.770736694
45.32963622,-0.08379706,0.198718742,9.708487511
45.37963622,-0.069431849,0.165199921,9.792284966
45.42963622,-0.074220255,0.260968,9.622296333
45.47963622,-0.088585466,0.198718742,9.725247383
45.52963622,-0.093373865,0.193930343,9.806650162
45.57963622,-0.136469498,0.239420176,9.713275909
45.62963622,-0.086191259,0.268150598,9.734824181
45.67963622,-0.074220255,0.268150598,9.799467087
45.72963622,-0.10295067,0.14844051,9.677363396
45.77963622,-0.134075299,0.169988319,9.758766174
45.82963622,-0.14844051,0.275333196,9.500192642
45.87963622,-0.064643443,0.213083953,9.861717224
45.92963622,-0.112527482,0.198718742,9.758766174
45.97963622,-0.079008654,0.225054964,9.840168953
46.02963622,-0.110133275,0.232237563,9.674968719
46.07963622,-0.086191259,0.213083953,9.756371498
46.12963622,-0.098162271,0.191536129,9.708487511
46.17963622,-0.08379706,0.201112941,9.761159897
46.22963622,-0.069431849,0.217872351,9.694122314
46.27963622,-0.069431849,0.18674773,9.799467087
46.32963622,-0.117315881,0.225054964,9.739612579
46.37963622,-0.112527482,0.169988319,9.842563629
46.42963622,-0.033518825,0.234631762,9.797073364
46.47963622,-0.098162271,0.172382519,9.686940193
46.52963622,-0.079008654,0.14844051,9.746794701
46.57963622,-0.14844051,0.196324542,9.689333916
46.62963622,-0.057460841,0.177170932,9.701305389
46.67963622,-0.079008654,0.193930343,9.782708168
46.72963622,-0.079008654,0.198718742,9.679757118
46.77963622,-0.059855044,0.146046311,9.868899345
46.82963622,-0.105344877,0.196324542,9.665391922
46.87963622,-0.074220255,0.146046311,9.87608242
46.92963622,-0.105344877,0.179565132,9.730035782
46.97963622,-0.08379706,0.196324542,9.744400978
47.02963622,-0.090979666,0.18435353,9.708487511
47.07963622,-0.074220255,0.134075299,9.813833237
47.12963622,-0.136469498,0.225054964,9.672574997
47.17963622,-0.055066638,0.18674773,9.789890289
47.22963622,-0.160411507,0.174776718,9.648633003
47.27963622,-0.067037649,0.153228909,9.751583099
47.32963622,-0.146046311,0.215478152,9.543288231
47.37963622,-0.117315881,0.126892686,9.880870819
47.42963622,-0.090979666,0.201112941,9.756371498
47.47963622,-0.069431849,0.241814375,9.756371498
47.52963622,-0.076614454,0.213083953,9.732429504
47.57963622,-0.071826048,0.177170932,9.732429504
47.62963622,-0.090979666,0.198718742,9.672574997
47.67963622,-0.074220255,0.208295554,9.821015358
47.72963622,-0.086191259,0.20590134,9.686940193
47.77963622,-0.047884032,0.181959331,9.799467087
47.82963622,-0.093373865,0.18435353,9.744400978
47.87963622,-0.047884032,0.217872351,9.801861763
47.92963622,-0.074220255,0.244208574,9.730035782
47.97963622,-0.10295067,0.150834709,9.775525093
48.02963622,-0.086191259,0.191536129,9.706093788
48.07963622,-0.155623108,0.179565132,9.686940193
48.12963622,-0.081402861,0.177170932,9.751583099
48.17963622,-0.062249243,0.258573771,9.708487511
48.22963622,-0.076614454,0.198718742,9.713275909
48.27963622,-0.088585466,0.201112941,9.727641106
48.32963622,-0.124498487,0.20350714,9.763554573
48.37963622,-0.105344877,0.177170932,9.780313492
48.42963622,-0.086191259,0.213083953,9.749189377
48.47963622,-0.105344877,0.172382519,9.730035782
48.52963622,-0.074220255,0.20350714,9.684545517
48.57963622,-0.100556471,0.141257897,9.758766174
48.62963622,-0.076614454,0.208295554,9.81143856
48.67963622,-0.08379706,0.160411507,9.770736694
48.72963622,-0.023942016,0.169988319,9.722852707
48.77963622,-0.112527482,0.174776718,9.595960617
48.82963622,-0.021547815,0.138863698,9.770736694
48.87963622,-0.069431849,0.126892686,9.751583099
48.92963622,-0.069431849,0.14844051,9.813833237
48.97963622,-0.088585466,0.129286885,9.727641106
49.02963622,-0.052672438,0.143652096,9.746794701
49.07963622,-0.04070143,0.112527482,9.818621635
49.12963622,-0.052672438,0.158017308,9.710882187
49.17963622,-0.057460841,0.165199921,9.770736694
49.22963622,-0.081402861,0.119710088,9.761159897
49.27963622,-0.069431849,0.160411507,9.847352028
49.32963622,-0.067037649,0.141257897,9.665391922
49.37963622,-0.098162271,0.110133275,9.765948296
49.42963622,-0.095768064,0.174776718,9.610325813
49.47963622,-0.110133275,0.146046311,9.720458984
49.52963622,-0.02873042,0.169988319,9.742006302
49.57963622,-0.134075299,0.119710088,9.742006302
49.62963622,-0.136469498,0.088585466,9.758766174
49.67963622,-0.117315881,0.158017308,9.679757118
49.72963622,-0.090979666,0.126892686,9.725247383
49.77963622,-0.093373865,0.047884032,9.797073364
49.82963622,-0.117315881,0.134075299,9.643844604
49.87963622,-0.047884032,0.117315881,9.746794701
49.92963622,-0.079008654,0.222660765,9.665391922
49.97963622,-0.069431849,0.095768064,9.885659218
50.02963622,-0.107739076,0.122104287,9.797073364
50.07963622,-0.095768064,0.153228909,9.744400978
50.12963622,-0.093373865,0.10295067,9.753977776
50.17963622,-0.100556471,0.150834709,9.713275909
50.22963622,-0.110133275,0.158017308,9.694122314
50.27963622,-0.122104287,0.098162271,9.840168953
50.32963622,-0.107739076,0.112527482,9.567230225
50.37963622,-0.122104287,0.064643443,9.835380554
50.42963622,-0.107739076,0.088585466,9.718064308
50.47963622,-0.160411507,0.045489833,9.840168953
50.52963622,-0.059855044,0.122104287,9.732429504
50.57963622,-0.114921682,0.08379706,9.768342972
50.62963622,-0.093373865,0.105344877,9.734824181
50.67963622,-0.114921682,0.095768064,9.758766174
50.72963622,-0.112527482,0.122104287,9.698910713
50.77963622,-0.057460841,0.119710088,9.737217903
50.82963622,-0.059855044,0.114921682,9.713275909
50.87963622,-0.062249243,0.100556471,9.710882187
50.92963622,-0.045489833,0.122104287,9.770736694
50.97963622,-0.050278235,0.124498487,9.658209801
51.02963622,-0.057460841,0.079008654,9.902418137
51.07963622,-0.074220255,0.114921682,9.708487511
51.12963622,-0.047884032,0.069431849,9.847352028
51.17963622,-0.026336219,0.093373865,9.761159897
51.22963622,-0.067037649,0.08379706,9.744400978
51.27963622,-0.090979666,0.098162271,9.691728592
51.32963622,-0.1316811,0.067037649,9.744400978
51.37963622,-0.050278235,0.107739076,9.713275909
51.42963622,-0.064643443,0.074220255,9.758766174
51.47963622,-0.062249243,0.047884032,9.734824181
51.52963622,-0.1316811,0.088585466,9.722852707
51.57963622,-0.105344877,0.090979666,9.698910713
51.62963622,-0.08379706,0.071826048,9.737217903
51.67963622,-0.081402861,0.090979666,9.81143856
51.72963622,-0.074220255,0.057460841,9.801861763
51.77963622,-0.04309563,0.08379706,9.727641106
51.82963622,-0.076614454,0.062249243,9.698910713
51.87963622,-0.067037649,0.045489833,9.758766174
51.92963622,-0.126892686,0.08379706,9.634267807
51.97963622,-0.074220255,0.050278235,9.780313492
52.02963622,-0.04309563,0.045489833,9.907206535
52.07963622,-0.124498487,0.047884032,9.689333916
52.12963622,-0.122104287,0.057460841,9.761159897
52.17963622,-0.138863698,0.088585466,9.643844604
52.22963622,-0.124498487,0.002394202,9.842563629
52.27963622,-0.114921682,0.059855044,9.758766174
52.32963622,-0.107739076,0.086191259,9.715670586
52.37963622,-0.114921682,0.02873042,9.737217903
52.42963622,-0.107739076,0.129286885,9.756371498
52.47963622,-0.14844051,-0.007182605,9.825803757
52.52963622,-0.059855044,0.112527482,9.684545517
52.57963622,-0.146046311,0.038307227,9.665391922
52.62963622,-0.071826048,0.033518825,9.753977776
52.67963622,-0.134075299,0.08379706,9.643844604
52.72963622,-0.095768064,0.062249243,9.715670586
52.77963622,-0.112527482,0.067037649,9.806650162
52.82963622,-0.086191259,0.067037649,9.722852707
52.87963622,-0.112527482,-0.021547815,9.9526968
52.92963622,-0.090979666,0.110133275,9.655815125
52.97963622,-0.088585466,0.016759412,9.873687744
53.02963622,-0.112527482,0.055066638,9.672574997
53.07963622,-0.047884032,0.086191259,9.662998199
53.12963622,-0.074220255,0.035913024,9.785101891
53.17963622,-0.14844051,0.059855044,9.804255486
53.22963622,-0.146046311,0.067037649,9.679757118
53.27963622,-0.177170932,0.031124622,9.785101891
53.32963622,-0.064643443,0.117315881,9.677363396
53.37963622,-0.098162271,0.038307227,9.809044838
53.42963622,-0.052672438,0.081402861,9.703699112
53.47963622,-0.098162271,0.055066638,9.787496567
53.52963622,-0.095768064,0.105344877,9.682151794
53.57963622,-0.110133275,0.093373865,9.746794701
53.62963622,-0.098162271,0.08379706,9.667786598
53.67963622,-0.107739076,0.050278235,9.861717224
53.72963622,-0.095768064,0.112527482,9.63666153
53.77963622,-0.052672438,0.045489833,9.818621635
53.82963622,-0.081402861,0.141257897,9.706093788
53.87963622,-0.105344877,0.062249243,9.84974575
53.92963622,-0.114921682,0.10295067,9.722852707
53.97963622,-0.150834709,0.04070143,9.746794701
54.02963622,-0.055066638,0.107739076,9.629479408
54.07963622,-0.057460841,0.019153614,9.804255486
54.12963622,-0.105344877,0.074220255,9.708487511
54.17963622,-0.071826048,0.038307227,9.797073364
54.22963622,-0.117315881,0.050278235,9.737217903
54.27963622,-0.081402861,0.071826048,9.770736694
54.32963622,-0.074220255,0.081402861,9.823410034
54.37963622,-0.110133275,0.047884032,9.840168953
54.42963622,-0.110133275,0.088585466,9.701305389
54.47963622,-0.021547815,0.095768064,9.564835548
54.52963622,-0.114921682,0.009576807,9.979032516
54.57963622,-0.067037649,0.18674773,9.947908401
54.62963622,-0.126892686,-0.136469498,10.44350815
54.67963622,-0.134075299,-0.105344877,10.54645824
54.72963622,-0.069431849,0.181959331,10.07719517
54.77963622,-0.071826048,0.093373865,10.07240677
54.82963622,-0.064643443,0.026336219,9.825803757
54.87963622,-0.10295067,-0.064643443,9.88805294
54.92963622,-0.090979666,0.069431849,9.765948296
54.97963622,-0.062249243,0.026336219,10.00776291
55.02963622,-0.117315881,-0.059855044,10.18014526
55.07963622,-0.105344877,-0.02873042,10.18732834
55.12963622,-0.088585466,-0.004788403,10.13704967
55.17963622,-0.18435353,-0.007182605,10.07958889
55.22963622,-0.090979666,-0.04309563,10.13704967
55.27963622,-0.095768064,-0.021547815,10.0412817
55.32963622,-0.093373865,-0.019153614,10.14662647
55.37963622,-0.08379706,-0.01436521,9.993397713
55.42963622,-0.045489833,-0.079008654,10.13944435
55.47963622,-0.179565132,0.016759412,9.92636013
55.52963622,-0.067037649,-0.019153614,10.22324085
55.57963622,-0.050278235,0.01436521,10.17056847
55.62963622,-0.090979666,-0.052672438,10.18014526
55.67963622,-0.117315881,-0.02873042,10.15620327
55.72963622,-0.098162271,0.057460841,10.0508585
55.77963622,-0.107739076,-0.002394202,10.22802925
55.82963622,-0.105344877,0.035913024,10.18972206
55.87963622,-0.114921682,0.009576807,10.18014526
55.92963622,-0.1316811,-0.01436521,10.3405571
55.97963622,-0.093373865,0.016759412,10.24957752
56.02963622,-0.059855044,0.038307227,10.24957752
56.07963622,-0.059855044,-0.007182605,10.18972206
56.12963622,-0.126892686,-0.045489833,10.26394272
56.17963622,-0.088585466,0.067037649,10.15620327
56.22963622,-0.088585466,-0.011971008,10.02212811
56.27963622,-0.062249243,-0.069431849,10.25436592
56.32963622,-0.074220255,0.062249243,10.0604353
56.37963622,-0.076614454,0.031124622,10.03409958
56.42963622,-0.112527482,0.074220255,9.878476143
56.47963622,-0.081402861,0.04070143,9.600749016
56.52963622,-0.086191259,0.035913024,9.617507935
56.57963622,-0.090979666,0.095768064,9.557653427
56.62963622,-0.08379706,0.062249243,9.591172218
56.67963622,-0.112527482,0.002394202,9.809044838
56.72963622,-0.076614454,0.14844051,9.775525093
56.77963622,-0.02873042,0.04309563,10.16578007
56.82963622,-0.179565132,-0.141257897,10.31182671
56.87963622,-0.124498487,0.090979666,9.921571732
56.92963622,-0.153228909,0.117315881,9.562441826
56.97963622,-0.076614454,0.064643443,9.464279175
57.02963622,-0.04309563,0.076614454,9.373299599
57.07963622,-0.067037649,0.052672438,9.461885452
57.12963622,-0.055066638,0.031124622,9.773131371
57.17963622,-0.062249243,0.093373865,9.993397713
57.22963622,-0.079008654,0.04309563,10.01733971
57.27963622,-0.093373865,0.050278235,10.00776291
57.32963622,-0.138863698,0.067037649,9.880870819
57.37963622,-0.107739076,0.059855044,9.605537415
57.42963622,-0.095768064,0.062249243,9.428366661
57.47963622,-0.086191259,0.04309563,9.500192642
57.52963622,-0.136469498,0.038307227,9.758766174
57.57963622,-0.126892686,0.088585466,9.765948296
57.62963622,-0.18435353,0.021547815,9.947908401
57.67963622,-0.081402861,0.050278235,9.938331604
57.72963622,-0.124498487,0.079008654,9.773131371
57.77963622,-0.114921682,0.047884032,9.684545517
57.82963622,-0.18435353,0.021547815,9.605537415
57.87963622,-0.146046311,0.004788403,9.665391922
57.92963622,-0.134075299,0.04309563,9.605537415
57.97963622,-0.172382519,0.033518825,9.627084732
58.02963622,-0.136469498,0.007182605,9.818621635
58.07963622,-0.160411507,-0.007182605,9.821015358
58.12963622,-0.16759412,-0.011971008,9.91438961
58.17963622,-0.18435353,0.021547815,9.703699112
58.22963622,-0.129286885,-0.023942016,9.813833237
58.27963622,-0.177170932,0.021547815,9.507374763
58.32963622,-0.045489833,-0.019153614,9.691728592
58.37963622,-0.088585466,0,9.708487511
58.42963622,-0.129286885,-0.002394202,9.780313492
58.47963622,-0.153228909,0.031124622,9.727641106
58.52963622,-0.146046311,-0.067037649,9.902418137
58.57963622,-0.124498487,-0.004788403,9.787496567
58.62963622,-0.143652096,0.02873042,9.773131371
58.67963622,-0.119710088,0.004788403,9.904812813
58.72963622,-0.090979666,0.069431849,9.567230225
58.77963622,-0.100556471,-0.038307227,9.734824181
58.82963622,-0.124498487,0.016759412,9.698910713
58.87963622,-0.105344877,0.021547815,9.653421402
58.92963622,-0.136469498,0.007182605,9.722852707
58.97963622,-0.064643443,-0.026336219,9.947908401
59.02963622,-0.119710088,0.02873042,9.854534149
59.07963622,-0.112527482,0.038307227,9.775525093
59.12963622,-0.177170932,0.002394202,9.715670586
59.17963622,-0.138863698,0.031124622,9.593565941
59.22963622,-0.105344877,-0.01436521,9.662998199
59.27963622,-0.155623108,0.01436521,9.658209801
59.32963622,-0.088585466,-0.007182605,9.720458984
59.37963622,-0.112527482,-0.033518825,9.825803757
59.42963622,-0.124498487,-0.035913024,9.84974575
59.47963622,-0.1316811,0.021547815,9.770736694
59.52963622,-0.208295554,0.007182605,9.662998199
59.57963622,-0.112527482,-0.095768064,9.828198433
59.62963622,-0.110133275,-0.069431849,9.753977776
59.67963622,-0.08379706,0.002394202,9.63666153
59.72963622,-0.126892686,-0.052672438,9.832986832
59.77963622,-0.110133275,-0.01436521,9.821015358
59.82963622,-0.134075299,-0.055066638,9.890447617
59.87963622,-0.10295067,-0.002394202,9.801861763
59.92963622,-0.129286885,-0.019153614,9.631873131
59.97963622,-0.098162271,-0.067037649,9.600749016
60.02963622,-0.035913024,-0.031124622,9.646238327
60.07963622,-0.16759412,-0.081402861,9.682151794
60.12963622,-0.071826048,-0.033518825,9.780313492
60.17963622,-0.18674773,-0.090979666,9.674968719
60.22963622,-0.08379706,-0.071826048,9.969455719
60.27963622,-0.074220255,-0.069431849,9.856928825
60.32963622,-0.100556471,-0.079008654,9.928754807
60.37963622,-0.134075299,-0.021547815,9.564835548
60.42963622,-0.1316811,-0.10295067,9.655815125
60.47963622,-0.153228909,-0.119710088,9.742006302
60.52963622,-0.110133275,-0.016759412,9.605537415
60.57963622,-0.119710088,-0.112527482,9.725247383
60.62963622,-0.10295067,-0.141257897,9.945513725
60.67963622,-0.107739076,-0.064643443,9.787496567
60.72963622,-0.110133275,-0.081402861,9.87608242
60.77963622,-0.158017308,0,9.567230225
60.82963622,-0.129286885,-0.107739076,9.682151794
60.87963622,-0.074220255,-0.129286885,9.770736694
60.92963622,-0.119710088,-0.069431849,9.610325813
60.97963622,-0.100556471,-0.114921682,9.840168953
61.02963622,-0.160411507,-0.045489833,9.648633003
61.07963622,-0.138863698,-0.107739076,9.84974575
61.12963622,-0.141257897,-0.110133275,9.861717224
61.17963622,-0.122104287,-0.088585466,9.756371498
61.22963622,-0.143652096,-0.162805721,9.87608242
61.27963622,-0.112527482,-0.050278235,9.662998199
61.32963622,-0.14844051,-0.146046311,9.631873131
61.37963622,-0.126892686,-0.138863698,9.715670586
61.42963622,-0.14844051,-0.076614454,9.655815125
61.47963622,-0.105344877,-0.136469498,9.864110947
61.52963622,-0.110133275,-0.086191259,9.720458984
61.57963622,-0.1316811,-0.112527482,9.765948296
61.62963622,-0.150834709,-0.10295067,9.751583099
61.67963622,-0.177170932,-0.160411507,9.832986832
61.72963622,-0.136469498,0.023942016,9.485827446
61.77963622,-0.107739076,0.026336219,9.516951561
61.82963622,-0.177170932,0.019153614,9.320627213
61.87963622,-0.112527482,-0.138863698,9.519346237
61.92963622,-0.146046311,-0.093373865,9.737217903
61.97963622,-0.155623108,0.093373865,9.545681953
62.02963622,-0.213083953,0.052672438,9.363722801
62.07963622,-0.162805721,0.100556471,8.904036522
62.12963622,-0.067037649,0.04309563,8.719682693
62.17963622,-0.10295067,-0.038307227,8.774748802
62.22963622,-0.067037649,0.1316811,8.705317497
62.27963622,-0.107739076,0.155623108,8.880094528
62.32963622,-0.134075299,0.079008654,9.270348549
62.37963622,-0.110133275,0.105344877,9.603142738
62.42963622,-0.117315881,0.105344877,9.488221169
62.47963622,-0.129286885,0.007182605,9.679757118
62.52963622,-0.100556471,0.095768064,9.296685219
62.57963622,-0.153228909,-0.064643443,9.220070839
62.62963622,-0.134075299,0.067037649,8.963891029
62.67963622,-0.208295554,0.076614454,8.944737434
62.72963622,-0.088585466,-0.009576807,9.344569206
62.77963622,-0.141257897,-0.033518825,9.425971985
62.82963622,-0.146046311,0.007182605,9.493009567
62.87963622,-0.146046311,0.074220255,9.294290543
62.92963622,-0.174776718,0.019153614,9.311050415
62.97963622,-0.158017308,-0.055066638,9.414001465
63.02963622,-0.172382519,0.009576807,9.30386734
63.07963622,-0.119710088,-0.004788403,9.332598686
63.12963622,-0.18674773,-0.033518825,9.452308655
63.17963622,-0.095768064,0.009576807,9.454702377
63.22963622,-0.220266551,-0.045489833,9.516951561
63.27963622,-0.059855044,-0.047884032,9.569623947
63.32963622,-0.229843363,-0.055066638,9.550470352
63.37963622,-0.143652096,-0.019153614,9.576807022
63.42963622,-0.08379706,-0.059855044,9.818621635
63.47963622,-0.150834709,-0.155623108,10.01015759
63.52963622,-0.220266551,-0.119710088,10.07001209
63.57963622,-0.244208574,-0.100556471,9.835380554
63.62963622,-0.217872351,-0.081402861,9.725247383
63.67963622,-0.150834709,-0.088585466,9.732429504
63.72963622,-0.253785372,-0.088585466,9.648633003
63.77963622,-0.158017308,-0.055066638,9.672574997
63.82963622,-0.229843363,-0.141257897,9.758766174
63.87963622,-0.193930343,-0.062249243,9.667786598
63.92963622,-0.208295554,-0.10295067,9.595960617
63.97963622,-0.181959331,-0.122104287,9.842563629
64.02963622,-0.196324542,-0.090979666,9.679757118
64.07963622,-0.169988319,-0.14844051,9.883264542
64.12963622,-0.177170932,-0.093373865,9.746794701
64.17963622,-0.189141929,-0.090979666,9.627084732
64.22963622,-0.215478152,-0.122104287,9.617507935
64.27963622,-0.201112941,-0.150834709,9.753977776
64.32963622,-0.210689753,-0.165199921,9.816226959
64.37963622,-0.172382519,-0.146046311,9.804255486
64.42963622,-0.232237563,-0.1316811,9.753977776
64.47963622,-0.251391172,-0.177170932,9.653421402
64.52963622,-0.217872351,-0.179565132,9.756371498
64.57963622,-0.234631762,-0.146046311,9.775525093
64.62963622,-0.217872351,-0.146046311,9.746794701
64.67963622,-0.284909993,-0.155623108,9.864110947
64.72963622,-0.318428814,-0.18435353,9.679757118
64.77963622,-0.313640416,-0.038307227,9.665391922
64.82963622,-0.160411507,-0.208295554,9.660603523
64.87963622,-0.217872351,-0.20350714,9.763554573
64.92963622,-0.308852017,-0.162805721,9.921571732
64.97963622,-0.246602774,-0.165199921,9.739612579
65.02963622,-0.275333196,-0.143652096,9.770736694
65.07963622,-0.239420176,-0.153228909,9.691728592
65.12963622,-0.196324542,-0.138863698,9.799467087
65.17963622,-0.213083953,-0.098162271,9.665391922
65.22963622,-0.158017308,-0.119710088,9.730035782
65.27963622,-0.272938997,-0.153228909,9.92636013
65.32963622,-0.122104287,0.007182605,9.504981041
65.37963622,-0.237025961,-0.110133275,9.519346237
65.42963622,-0.251391172,-0.162805721,9.765948296
65.47963622,-0.208295554,-0.153228909,9.682151794
65.52963622,-0.234631762,-0.193930343,9.832986832
65.57963622,-0.160411507,-0.246602774,9.895236015
65.62963622,-0.251391172,-0.241814375,9.749189377
65.67963622,-0.263362199,-0.165199921,9.758766174
65.72963622,-0.225054964,-0.277727395,9.713275909
65.77963622,-0.275333196,-0.241814375,9.804255486
65.82963622,-0.20590134,-0.284909993,9.775525093
65.87963622,-0.248996973,-0.260968,9.797073364
65.92963622,-0.280121595,-0.234631762,9.706093788
65.97963622,-0.174776718,-0.208295554,9.593565941
66.02963622,-0.280121595,-0.284909993,9.725247383
66.07963622,-0.313640416,-0.325611442,9.873687744
66.12963622,-0.260968,-0.263362199,9.806650162
66.17963622,-0.316034615,-0.222660765,9.631873131
66.22963622,-0.20350714,-0.311246216,9.698910713
66.27963622,-0.263362199,-0.306457818,9.787496567
66.32963622,-0.280121595,-0.215478152,9.787496567
66.37963622,-0.244208574,-0.280121595,9.818621635
66.42963622,-0.225054964,-0.260968,9.744400978
66.47963622,-0.215478152,-0.339976639,9.756371498
66.52963622,-0.239420176,-0.181959331,9.603142738
66.57963622,-0.225054964,-0.29688102,9.710882187
66.62963622,-0.251391172,-0.349553436,9.660603523
66.67963622,-0.308852017,-0.215478152,9.691728592
66.72963622,-0.150834709,-0.256179571,9.730035782
66.77963622,-0.251391172,-0.294486821,9.799467087
66.82963622,-0.220266551,-0.306457818,9.773131371
66.87963622,-0.301669419,-0.246602774,9.715670586
66.92963622,-0.253785372,-0.328005642,9.792284966
66.97963622,-0.193930343,-0.258573771,9.639056206
67.02963622,-0.232237563,-0.258573771,9.787496567
67.07963622,-0.237025961,-0.339976639,9.643844604
67.12963622,-0.239420176,-0.323217243,9.780313492
67.17963622,-0.251391172,-0.289698392,9.742006302
67.22963622,-0.208295554,-0.325611442,9.753977776
67.27963622,-0.246602774,-0.29688102,9.749189377
67.32963622,-0.229843363,-0.301669419,9.737217903
67.37963622,-0.189141929,-0.289698392,9.722852707
67.42963622,-0.220266551,-0.282515794,9.689333916
67.47963622,-0.241814375,-0.277727395,9.780313492
67.52963622,-0.251391172,-0.294486821,9.660603523
67.57963622,-0.256179571,-0.244208574,9.682151794
67.62963622,-0.181959331,-0.284909993,9.753977776
67.67963622,-0.191536129,-0.253785372,9.698910713
67.72963622,-0.258573771,-0.272938997,9.789890289
67.77963622,-0.220266551,-0.313640416,9.742006302
67.82963622,-0.220266551,-0.268150598,9.706093788
67.87963622,-0.193930343,-0.318428814,9.758766174
67.92963622,-0.208295554,-0.342370838,9.751583099
67.97963622,-0.248996973,-0.270544797,9.797073364
68.02963622,-0.14844051,-0.227449164,9.653421402
68.07963622,-0.181959331,-0.237025961,9.734824181
68.12963622,-0.253785372,-0.351947635,9.809044838
68.17963622,-0.239420176,-0.248996973,9.777919769
68.22963622,-0.244208574,-0.237025961,9.617507935
68.27963622,-0.143652096,-0.29688102,9.689333916
68.32963622,-0.229843363,-0.275333196,9.809044838
68.37963622,-0.20590134,-0.246602774,9.773131371
68.42963622,-0.294486821,-0.215478152,9.904812813
68.47963622,-0.136469498,-0.229843363,9.569623947
68.52963622,-0.217872351,-0.16759412,9.507374763
68.57963622,-0.191536129,-0.342370838,9.859322548
68.62963622,-0.227449164,-0.244208574,9.718064308
68.67963622,-0.114921682,-0.323217243,9.720458984
68.72963622,-0.301669419,-0.253785372,9.806650162
68.77963622,-0.191536129,-0.328005642,9.727641106
68.82963622,-0.251391172,-0.234631762,9.770736694
68.87963622,-0.260968,-0.320823014,9.789890289
68.92963622,-0.174776718,-0.263362199,9.765948296
68.97963622,-0.225054964,-0.260968,9.684545517
69.02963622,-0.311246216,-0.239420176,9.670180321
69.07963622,-0.217872351,-0.246602774,9.746794701
69.12963622,-0.256179571,-0.294486821,9.715670586
69.17963622,-0.222660765,-0.210689753,9.768342972
69.22963622,-0.260968,-0.241814375,9.648633003
69.27963622,-0.193930343,-0.328005642,9.828198433
69.32963622,-0.225054964,-0.239420176,9.603142738
69.37963622,-0.244208574,-0.217872351,9.581595421
69.42963622,-0.234631762,-0.301669419,9.777919769
69.47963622,-0.263362199,-0.210689753,9.761159897
69.52963622,-0.165199921,-0.256179571,9.840168953
69.57963622,-0.210689753,-0.232237563,9.816226959
69.62963622,-0.217872351,-0.263362199,9.749189377
69.67963622,-0.263362199,-0.258573771,9.751583099
69.72963622,-0.213083953,-0.253785372,9.686940193
69.77963622,-0.244208574,-0.237025961,9.770736694
69.82963622,-0.18674773,-0.232237563,9.646238327
69.87963622,-0.301669419,-0.292092621,9.931148529
69.92963622,-0.20590134,-0.241814375,9.794678688
69.97963622,-0.210689753,-0.275333196,9.730035782
70.02963622,-0.196324542,-0.227449164,9.777919769
70.07963622,-0.282515794,-0.239420176,9.62469101
70.12963622,-0.201112941,-0.227449164,9.792284966
70.17963622,-0.222660765,-0.227449164,9.670180321
70.22963622,-0.246602774,-0.246602774,9.746794701
70.27963622,-0.234631762,-0.222660765,9.725247383
70.32963622,-0.208295554,-0.220266551,9.744400978
70.37963622,-0.246602774,-0.260968,9.801861763
70.42963622,-0.215478152,-0.248996973,9.706093788
70.47963622,-0.253785372,-0.272938997,9.821015358
70.52963622,-0.225054964,-0.246602774,9.531316757
70.57963622,-0.193930343,-0.04309563,9.30386734
70.62963622,-0.1316811,0.119710088,9.018958092
70.67963622,-0.275333196,-0.241814375,9.325415611
70.72963622,-0.416591108,-0.438138902,9.718064308
70.77963622,-0.174776718,-0.172382519,9.753977776
70.82963622,-0.213083953,-0.323217243,10.19211674
70.87963622,-0.349553436,-0.366312861,10.12986755
70.92963622,-0.260968,-0.158017308,9.787496567
70.97963622,-0.270544797,-0.421379507,9.904812813
71.02963622,-0.237025961,-0.411802679,9.59835434
71.07963622,-0.229843363,-0.368707061,9.734824181
71.12963622,-0.16759412,-0.150834709,9.572018623
71.17963622,-0.20350714,-0.325611442,9.832986832
71.22963622,-0.234631762,-0.37349546,9.892841339
71.27963622,-0.248996973,-0.260968,9.866505623
71.32963622,-0.215478152,-0.248996973,9.639056206
71.37963622,-0.270544797,-0.20350714,9.574412346
71.42963622,-0.126892686,-0.280121595,9.684545517
71.47963622,-0.191536129,-0.191536129,9.653421402
71.52963622,-0.225054964,-0.210689753,9.524134636
71.57963622,-0.268150598,-0.268150598,9.859322548
71.62963622,-0.253785372,-0.313640416,9.813833237
71.67963622,-0.289698392,-0.193930343,9.734824181
71.72963622,-0.213083953,-0.328005642,9.782708168
71.77963622,-0.248996973,-0.277727395,9.653421402
71.82963622,-0.325611442,-0.318428814,9.753977776
71.87963622,-0.220266551,-0.237025961,9.600749016
71.92963622,-0.241814375,-0.268150598,9.639056206
71.97963622,-0.237025961,-0.304063618,9.797073364
72.02963622,-0.256179571,-0.356736064,9.768342972
72.07963622,-0.256179571,-0.275333196,9.691728592
72.12963622,-0.14844051,-0.325611442,9.770736694
72.17963622,-0.215478152,-0.294486821,9.806650162
72.22963622,-0.210689753,-0.275333196,9.842563629
72.27963622,-0.165199921,-0.217872351,9.694122314
72.32963622,-0.047884032,-0.237025961,9.631873131
72.37963622,-0.193930343,-0.141257897,9.603142738
72.42963622,-0.095768064,-0.258573771,9.615114212
72.47963622,-0.189141929,-0.20350714,9.763554573
72.52963622,-0.18435353,-0.141257897,9.715670586
72.57963622,-0.162805721,-0.304063618,9.902418137
72.62963622,-0.165199921,-0.292092621,9.832986832
72.67963622,-0.126892686,-0.284909993,9.801861763
72.72963622,-0.098162271,-0.179565132,9.674968719
72.77963622,-0.198718742,-0.258573771,9.765948296
72.82963622,-0.122104287,-0.213083953,9.655815125
72.87963622,-0.126892686,-0.201112941,9.62469101
72.92963622,-0.119710088,-0.253785372,9.706093788
72.97963622,-0.114921682,-0.201112941,9.737217903
73.02963622,-0.14844051,-0.225054964,9.749189377
73.07963622,-0.155623108,-0.225054964,9.782708168
73.12963622,-0.20590134,-0.29688102,9.890447617
73.17963622,-0.169988319,-0.246602774,9.773131371
73.22963622,-0.18435353,-0.234631762,9.710882187
73.27963622,-0.208295554,-0.208295554,9.665391922
73.32963622,-0.179565132,-0.196324542,9.667786598
73.37963622,-0.181959331,-0.275333196,9.797073364
73.42963622,-0.18435353,-0.177170932,9.751583099
73.47963622,-0.117315881,-0.301669419,9.816226959
73.52963622,-0.208295554,-0.215478152,9.715670586
73.57963622,-0.196324542,-0.246602774,9.734824181
73.62963622,-0.210689753,-0.217872351,9.765948296
73.67963622,-0.122104287,-0.213083953,9.653421402
73.72963622,-0.155623108,-0.229843363,9.722852707
73.77963622,-0.248996973,-0.294486821,9.825803757
73.82963622,-0.16759412,-0.158017308,9.667786598
73.87963622,-0.201112941,-0.253785372,9.730035782
73.92963622,-0.193930343,-0.280121595,9.777919769
73.97963622,-0.16759412,-0.268150598,9.804255486
74.02963622,-0.174776718,-0.20590134,9.703699112
74.07963622,-0.165199921,-0.248996973,9.789890289
74.12963622,-0.189141929,-0.301669419,9.737217903
74.17963622,-0.162805721,-0.256179571,9.753977776
74.22963622,-0.196324542,-0.339976639,9.751583099
74.27963622,-0.198718742,-0.191536129,9.708487511
74.32963622,-0.153228909,-0.225054964,9.634267807
74.37963622,-0.193930343,-0.263362199,9.739612579
74.42963622,-0.177170932,-0.277727395,9.813833237
74.47963622,-0.189141929,-0.162805721,9.682151794
74.52963622,-0.20350714,-0.282515794,9.765948296
74.57963622,-0.215478152,-0.20350714,9.703699112
74.62963622,-0.191536129,-0.213083953,9.722852707
74.67963622,-0.162805721,-0.234631762,9.718064308
74.72963622,-0.272938997,-0.222660765,9.801861763
74.77963622,-0.20350714,-0.232237563,9.737217903
74.82963622,-0.215478152,-0.193930343,9.667786598
74.87963622,-0.251391172,-0.244208574,9.761159897
74.92963622,-0.198718742,-0.287304193,9.792284966
74.97963622,-0.237025961,-0.232237563,9.859322548
75.02963622,-0.258573771,-0.244208574,9.722852707
75.07963622,-0.253785372,-0.265756398,9.682151794
75.12963622,-0.229843363,-0.150834709,9.639056206
75.17963622,-0.220266551,-0.251391172,9.737217903
75.22963622,-0.246602774,-0.299275219,9.81143856
75.27963622,-0.306457818,-0.155623108,9.679757118
75.32963622,-0.265756398,-0.256179571,9.818621635
75.37963622,-0.234631762,-0.244208574,9.737217903
75.42963622,-0.272938997,-0.198718742,9.713275909
75.47963622,-0.301669419,-0.265756398,9.813833237
75.52963622,-0.282515794,-0.263362199,9.698910713
75.57963622,-0.29688102,-0.16759412,9.686940193
75.62963622,-0.241814375,-0.29688102,9.804255486
75.67963622,-0.227449164,-0.215478152,9.710882187
75.72963622,-0.294486821,-0.277727395,9.785101891
75.77963622,-0.215478152,-0.229843363,9.646238327
75.82963622,-0.272938997,-0.258573771,9.864110947
75.87963622,-0.229843363,-0.260968,9.718064308
75.92963622,-0.258573771,-0.241814375,9.710882187
75.97963622,-0.313640416,-0.229843363,9.710882187
76.02963622,-0.316034615,-0.280121595,9.715670586
76.07963622,-0.275333196,-0.258573771,9.744400978
76.12963622,-0.263362199,-0.248996973,9.782708168
76.17963622,-0.313640416,-0.229843363,9.703699112
76.22963622,-0.265756398,-0.294486821,9.761159897
76.27963622,-0.198718742,-0.246602774,9.732429504
76.32963622,-0.287304193,-0.268150598,9.722852707
76.37963622,-0.222660765,-0.292092621,9.710882187
76.42963622,-0.299275219,-0.282515794,9.691728592
76.47963622,-0.227449164,-0.237025961,9.730035782
76.52963622,-0.160411507,-0.378283858,9.744400978
76.57963622,-0.20350714,-0.268150598,9.751583099
76.62963622,-0.222660765,-0.270544797,9.641449928
76.67963622,-0.270544797,-0.287304193,9.81143856
76.72963622,-0.20590134,-0.282515794,9.722852707
76.77963622,-0.270544797,-0.260968,9.785101891
76.82963622,-0.248996973,-0.328005642,9.768342972
76.87963622,-0.282515794,-0.282515794,9.773131371
76.92963622,-0.260968,-0.239420176,9.737217903
76.97963622,-0.229843363,-0.323217243,9.720458984
77.02963622,-0.258573771,-0.241814375,9.725247383
77.07963622,-0.323217243,-0.277727395,9.674968719
77.12963622,-0.292092621,-0.263362199,9.756371498
77.17963622,-0.222660765,-0.33279404,9.746794701
77.22963622,-0.272938997,-0.220266551,9.727641106
