Time (s),Acceleration x (m/s^2),Acceleration y (m/s^2),Acceleration z (m/s^2)
0.056134022,-0.751779318,-0.292092621,9.821015358
0.106134022,-0.696712673,-0.20590134,9.466673851
0.156134022,-0.725443125,-0.351947635,9.583989143
0.206134022,-0.675164878,-0.217872351,9.756371498
0.256134022,-0.608127236,-0.227449164,9.756371498
0.306134022,-0.66798228,-0.260968,9.92636013
0.356134022,-0.543483794,-0.320823014,9.56004715
0.406134022,-0.588973641,-0.306457818,9.593565941
0.456134022,-0.500388145,-0.378283858,9.99100399
0.506134022,-0.608127236,-0.442927301,9.612719536
0.556134022,-0.608127236,-0.359130263,9.653421402
0.606134022,-0.493205547,-0.404620081,9.809044838
0.656134022,-0.490811348,-0.464475125,9.777919769
0.706134022,-0.562637389,-0.48362875,9.818621635
0.756134022,-0.524330199,-0.375889659,9.701305389
0.806134022,-0.574608386,-0.347159237,9.734824181
0.856134022,-0.457292527,-0.416591108,9.777919769
0.906134022,-0.569819987,-0.316034615,9.634267807
0.956134022,-0.407014281,-0.359130263,9.610325813
1.006134022,-0.438138902,-0.392649084,9.852140427
1.056134022,-0.490811348,-0.354341865,9.698910713
1.106134022,-0.457292527,-0.368707061,9.739612579
1.156134022,-0.476446152,-0.299275219,9.648633003
1.206134022,-0.48362875,-0.37110126,9.782708168
1.256134022,-0.481234551,-0.380678058,9.844957352
1.306134022,-0.363918662,-0.33279404,9.552865028
1.356134022,-0.442927301,-0.414196909,9.710882187
1.406134022,-0.433350503,-0.402225882,9.780313492
1.456134022,-0.397437483,-0.339976639,9.753977776
1.506134022,-0.500388145,-0.404620081,9.785101891
1.556134022,-0.486022949,-0.411802679,9.734824181
1.606134022,-0.598550439,-0.416591108,9.62469101
1.656134022,-0.514753342,-0.387860686,9.806650162
1.706134022,-0.615309835,-0.330399841,9.576807022
1.756134022,-0.507570744,-0.402225882,9.773131371
1.806134022,-0.612915635,-0.363918662,9.813833237
1.856134022,-0.598550439,-0.40940848,9.660603523
1.906134022,-0.600944638,-0.363918662,9.773131371
1.956134022,-0.59376204,-0.304063618,9.770736694
2.006134022,-0.48362875,-0.299275219,9.88805294
2.056134022,-0.280121595,-0.143652096,9.232041359
2.106134022,-0.617704034,-0.18435353,10.14662647
2.156134022,-0.629675031,-0.114921682,9.907206535
2.206134022,-0.825999558,-0.023942016,9.40681839
2.256134022,-0.794874966,0.002394202,9.670180321
2.306134022,-0.67037648,0.114921682,9.346963882
2.356134022,-0.440533102,0.007182605,9.835380554
2.406134022,-0.289698392,-0.021547815,10.05804157
2.456134022,-0.153228909,0.713472128,9.143456459
2.506134022,-0.002394202,0.581790984,9.595960617
2.556134022,-0.045489833,0.636857629,9.732429504
2.606134022,-0.905008256,0.799663365,9.758766174
2.656134022,-0.708683729,0.811634362,9.153033257
2.706134022,-0.584185243,0.624886632,9.241618156
2.756134022,-0.129286885,0.778115571,10.01733971
2.806134022,-0.105344877,1.015141487,10.53688145
2.856134022,-0.495599747,0.754173517,10.67574501
2.906134022,-0.081402861,1.15400517,10.21605873
2.956134022,-0.150834709,1.11569798,11.14979744
3.006134022,-0.44532153,1.216254473,11.82735634
3.056134022,-0.509964943,0.383072257,10.20648193
3.106134022,-0.658405483,-0.361524463,9.732429504
3.156134022,-1.07739079,-0.885854602,8.913613319
3.206134022,-1.460463047,-0.110133275,8.817844391
3.256134022,-0.852335811,0.225054964,8.738836288
3.306134022,-0.404620081,0.150834709,8.990227699
3.356134022,-0.897825658,0.648828685,8.475474358
3.406134022,-0.641646028,0.55784899,8.420407295
3.456134022,-0.270544797,0.751779318,9.0740242
3.506134022,-0.785298169,1.206677675,9.021351814
3.556134022,-1.194706678,0.785298169,10.92234802
3.606134022,-0.974440098,0.474051923,12.05241108
3.656134022,-0.457292527,0.900219858,11.65976238
3.706134022,-0.648828685,-0.019153614,11.45864964
3.756134022,-0.809240162,-1.462857246,10.86249352
3.806134022,0.260968,-1.18991828,9.334992409
3.856134022,-0.572214186,0.16759412,8.386888504
3.906134022,-1.108515382,0.105344877,8.877699852
3.956134022,-0.464475125,0.44532153,7.302315235
4.006134022,-0.486022949,0.193930343,7.335834026
4.056134022,-0.383072257,0.572214186,8.276755333
4.106134022,-0.098162271,0.974440098,9.945513725
4.156134022,-0.70628953,0.361524463,11.75313568
4.206134022,-0.399831682,0.069431849,11.49695683
4.256134022,-0.754173517,0.603338838,10.6158905
4.306134022,-0.81881696,-2.197877169,12.17690945
4.356134022,-1.999158382,-1.379060149,9.258378029
4.406134022,-1.070208192,0.016759412,8.930372238
4.456134022,-0.320823014,-0.567425787,9.277531624
4.506134022,-0.802057564,-0.138863698,7.740454197
4.556134022,-0.821211159,0.275333196,6.835445881
4.606134022,-0.404620081,0.323217243,8.312667847
4.656134022,-0.974440098,0.660799682,9.607931137
4.706134022,-1.053448796,-0.031124622,12.03804588
4.756134022,-1.098938584,-0.177170932,13.12980175
4.806134022,-0.979228497,-0.160411507,11.88960552
4.856134022,-0.852335811,-1.517923832,12.61983681
4.906134022,0.356736064,-1.417367458,8.475474358
4.956134022,-0.368707061,-0.622492433,8.920795441
5.006134022,-1.137245774,-0.189141929,8.434772491
5.056134022,-0.351947635,0.316034615,6.660669327
5.106134022,-0.33518824,0.857124209,6.248866558
5.156134022,-0.438138902,0.342370838,8.365341187
5.206134022,-0.146046311,1.163581967,10.38365269
5.256134022,-0.924161851,0.232237563,12.96460247
5.306134022,-0.66798228,1.019929886,12.15057373
5.356134022,-1.692700624,-0.67037648,12.25831223
5.406134022,-1.201889277,-2.238578558,11.64060879
5.456134022,-1.510741234,-0.287304193,7.433996201
5.506134022,-1.537077546,-0.502782345,8.635885239
5.556134022,-0.627280831,-0.488417149,9.255983353
5.606134022,-0.600944638,0.59376204,6.622362137
5.656134022,-0.912190855,0.617704034,6.821080685
5.706134022,-0.92895025,0.797269166,8.604761124
5.756134022,-1.125274777,1.015141487,11.43710136
5.806134022,-1.046266198,0.545877993,13.17050362
5.856134022,-1.496376038,1.44849205,11.38921738
5.906134022,-1.359906554,-1.946485996,13.64694977
5.956134022,-0.04070143,-1.980004787,11.21922874
6.006134022,0.08379706,-0.63446343,8.099584579
6.056134022,-1.101332784,-0.124498487,7.967903137
6.106134022,-0.763750315,0.04070143,6.993463039
6.156134022,0.138863698,0.213083953,6.351817131
6.206134022,-0.402225882,0.524330199,7.331045628
6.256134022,-0.119710088,0.730231524,10.26873112
6.306134022,-0.466869324,1.18991828,12.51928043
6.356134022,-0.574608386,0.67037648,12.62701988
6.406134022,-1.426944256,2.272097349,11.25753593
6.456134022,-0.275333196,-1.132457376,11.73877048
6.506134022,-1.606509328,-1.340752959,9.004592896
6.556134022,-0.732625723,-0.229843363,7.520187378
6.606134022,-0.74220252,-0.093373865,9.263166428
6.656134022,-0.988805294,0.603338838,7.759607792
6.706134022,-0.328005642,0.622492433,6.385335922
6.756134022,-0.823605359,0.869095206,7.426813602
6.806134022,0.146046311,1.422155857,11.49935055
6.856134022,-1.364694953,1.271321058,12.82573891
6.906134022,-1.656787634,1.910573006,11.46104336
6.956134022,-2.181117773,-1.381454349,12.91432381
7.006134022,-0.454898328,-2.387019157,14.23831749
7.056134022,-0.011971008,-0.450109929,7.915230751
7.106134022,-0.615309835,0.162805721,8.149862289
7.156134022,-0.450109929,-0.119710088,7.271190643
7.206134022,0.100556471,0.591367841,5.537788391
7.256134022,0.026336219,0.586579442,6.593631268
7.306134022,-0.193930343,1.086967587,9.018958092
7.356134022,-0.047884032,1.920149803,11.83453941
7.406134022,-0.761356115,0.804451764,14.25507736
7.456134022,-1.074996591,0.926556051,11.5975132
7.506134022,-1.26413846,-2.932897091,14.98052025
7.556134022,-1.314416766,-0.059855044,8.214506149
7.606134022,-1.462857246,0.275333196,7.086836815
7.656134022,-0.608127236,-0.682347477,8.07324791
7.706134022,-0.308852017,0.071826048,6.473921299
7.756134022,-0.656011283,0.957680702,6.672640324
7.806134022,-1.132457376,0.792480767,8.583212852
7.856134022,-0.160411507,1.549048543,11.48259163
7.906134022,-1.027112484,0.512359142,12.43308926
7.956134022,-0.840364814,0.969651699,12.33492756
8.006134022,-0.584185243,-0.119710088,11.51850414
8.056134022,-0.074220255,-2.133233786,11.76031876
8.106134022,0.227449164,-1.649604917,9.871294022
8.156134022,-1.065419793,-0.074220255,8.83699894
8.206134022,-0.509964943,0.723048925,7.539340973
8.256134022,-0.007182605,0.725443125,6.004657745
8.306134022,-0.141257897,0.512359142,6.373364925
8.356134022,-0.248996973,0.366312861,9.210494041
8.406134022,-0.328005642,1.256955862,11.6669445
8.456134022,0.201112941,0.356736064,14.04917526
8.506134022,-0.696712673,0.960074902,11.03008747
8.556134022,-1.714248419,-3.059789658,14.82729149
8.606134022,-0.907402456,-0.651222885,8.015787125
8.656134022,-0.787692368,-0.536301196,8.327033043
8.706134022,-0.998382092,-1.168370485,9.653421402
8.756134022,-0.569819987,0.1316811,6.698976517
8.806134022,-0.272938997,0.59376204,5.861005783
8.856134022,-0.416591108,0.567425787,7.838616371
8.906134022,-0.9672575,1.271321058,10.0556469
8.956134022,-0.502782345,0.37349546,13.6301899
9.006134022,-1.051054597,0.529118598,12.63180828
9.056134022,0.155623108,0.481234551,11.41794777
9.106134022,-0.550666392,-2.11647439,11.16416264
9.156134022,0.191536129,-2.394201756,9.902418137
9.206134022,-0.486022949,-0.490811348,8.530540466
9.256134022,-0.85473001,-0.079008654,9.239224434
9.306134022,-0.055066638,0.677559078,6.50744009
9.356134022,-0.165199921,0.48362875,5.781997204
9.406134022,0.074220255,0.01436521,8.197746277
9.456134022,0.045489833,1.034295082,10.67335129
9.506134022,-0.837970614,0.232237563,13.33330917
9.556134022,-1.012747288,1.036689281,12.23915863
9.606134022,-1.55862534,-0.363918662,11.76750088
9.656134022,-1.805228114,-2.389413357,11.68849277
9.706134022,-1.302445769,-0.998382092,7.762001991
9.756134022,-1.000776291,-1.012747288,8.992621422
9.806134022,-0.914585054,-0.251391172,7.984662533
9.856134022,-0.567425787,0.402225882,6.531382084
9.906134022,-0.538695395,0.500388145,6.715735912
9.956134022,-0.809240162,0.189141929,9.531316757
10.00613402,-0.244208574,1.211466074,11.25274754
10.05613402,-1.388636947,-0.081402861,13.59906578
10.10613402,-0.881066203,1.355118155,11.91354752
10.15613402,-0.845153213,-1.922544003,12.6294136
10.20613402,0.301669419,-2.849100113,10.69489861
10.25613402,0.306457818,-1.168370485,8.607154846
10.30613402,-1.022324085,-0.256179571,8.47786808
10.35613402,-0.272938997,0.320823014,7.000645638
10.40613402,-0.071826048,0.536301196,5.880159378
10.45613402,0.01436521,0.004788403,7.225700855
10.50613402,-0.37110126,0.330399841,9.921571732
10.55613402,-0.464475125,0.885854602,12.34929276
10.60613402,-0.708683729,-0.337582439,13.05797577
10.65613402,-1.407790542,0.387860686,11.17852783
10.70613402,-1.237802267,-3.294421434,12.89038181
10.75613402,-1.458068848,-1.331176162,8.760383606
10.80613402,-1.058237195,-1.036689281,9.193734169
10.85613402,-0.416591108,-0.330399841,8.367734909
10.90613402,-0.486022949,0.337582439,6.095637321
10.95613402,-0.478840351,0.002394202,6.665457726
11.00613402,-0.713472128,0.021547815,8.054094315
11.05613402,-0.833182216,0.804451764,10.6254673
11.10613402,-0.363918662,0.586579442,12.62701988
11.15613402,-0.67037648,0.239420176,12.46421432
11.20613402,-0.093373865,-0.14844051,11.14500904
11.25613402,0.134075299,-3.136404276,13.10585976
11.30613402,0.471657723,-1.881842494,8.951920509
11.35613402,-0.689530075,-1.024718285,8.422801971
11.40613402,-0.766144514,-0.062249243,7.869740963
11.45613402,-0.244208574,0.375889659,6.196194172
11.50613402,-0.138863698,0.509964943,6.402095318
11.55613402,-0.421379507,-0.143652096,9.301473618
11.60613402,-0.344765037,0.694318473,11.25035381
11.65613402,-0.869095206,-0.119710088,13.08670616
11.70613402,-1.52510643,0.59615624,12.11944866
11.75613402,-1.484405041,-0.263362199,11.32696819
11.80613402,-0.940921247,-2.554613113,10.38365269
11.85613402,-1.601720929,-2.272097349,8.901641846
11.90613402,-0.790086567,-0.981622696,9.840168953
11.95613402,-0.773327172,0.363918662,8.037335396
12.00613402,-0.553060591,0.316034615,6.313509941
12.05613402,-0.488417149,-0.009576807,6.426037312
12.10613402,-1.110909581,0.260968,8.815450668
12.15613402,-0.026336219,0.821211159,11.59511852
12.20613402,-1.223437071,-0.44532153,13.71877575
12.25613402,-1.144428372,1.07739079,10.99656868
12.30613402,-0.81881696,-2.643198729,12.70123959
12.35613402,0.031124622,-3.627215624,11.11149025
12.40613402,-0.172382519,-0.909796655,7.87931776
12.45613402,-0.737414122,-0.253785372,9.354146004
12.50613402,-0.462080926,-0.124498487,7.582436562
12.55613402,0.153228909,0.086191259,6.339846134
12.60613402,-0.454898328,0.074220255,6.854599476
12.65613402,-0.565031588,0.469263524,9.327810287
12.70613402,-0.347159237,0.574608386,11.98297977
12.75613402,-0.610521436,-0.253785372,12.72996998
12.80613402,-1.944091797,1.357512355,11.32696819
12.85613402,0.177170932,0.457292527,11.41315937
12.90613402,-3.047818661,-3.931279182,11.71482849
12.95613402,-0.837970614,-0.629675031,8.851364136
13.00613402,-0.646434486,0.270544797,7.838616371
13.05613402,-1.031900883,0.265756398,6.64869833
13.10613402,0.062249243,-0.10295067,6.406883717
13.15613402,-0.859518409,0.289698392,8.458714485
13.20613402,-0.363918662,1.106121182,12.24873543
13.25613402,-1.312022567,0.344765037,12.15775585
13.30613402,-0.708683729,0.775721371,11.80580902
13.35613402,-1.122880578,-1.541865945,13.40752983
13.40613402,0.098162271,-2.631227732,11.00135708
13.45613402,0.457292527,-1.501164436,9.160215378
13.50613402,-0.74459672,-0.311246216,8.698134422
13.55613402,-0.727837324,0.011971008,7.639897823
13.60613402,-0.397437483,0.37110126,6.72531271
13.65613402,-0.260968,0.225054964,7.065289021
13.70613402,-0.246602774,0.591367841,7.960720539
13.75613402,-0.792480767,1.106121182,10.67813969
13.80613402,0.165199921,-0.031124622,13.34767437
13.85613402,-0.871489406,0.754173517,11.05163479
13.90613402,-0.861912608,-1.549048543,13.8959465
13.95613402,-1.474828243,-1.230619669,9.311050415
14.00613402,-0.050278235,-0.392649084,8.492233276
14.05613402,-0.541089594,-0.814028561,9.279925346
14.10613402,-0.641646028,0,7.347805023
14.15613402,-0.414196909,0.325611442,6.658275127
14.20613402,-0.368707061,0.311246216,7.522581577
14.25613402,-0.193930343,0.711077929,10.44590187
14.30613402,-0.78050977,0.100556471,11.38203526
14.35613402,-1.319205165,0.63206923,11.28147888
14.40613402,-0.318428814,0.225054964,11.44188976
14.45613402,-1.04147768,-3.074155092,14.18325043
14.50613402,0.588973641,-1.886630893,9.435548782
14.55613402,0.18674773,-0.129286885,8.348581314
14.60613402,-1.070208192,-0.545877993,8.884882927
14.65613402,-0.074220255,0.600944638,7.113173485
14.70613402,0.071826048,0.567425787,6.710947514
14.75613402,-0.320823014,0.689530075,8.365341187
14.80613402,0.418985307,0.59615624,10.14902115
14.85613402,-0.694318473,0.251391172,12.10747814
14.90613402,-0.464475125,0.344765037,11.83214474
14.95613402,-1.259350061,0.720654726,10.85531044
15.00613402,0.423773706,-0.682347477,10.11550236
15.05613402,-2.621650934,-2.947262287,10.66856289
15.10613402,-0.138863698,-1.098938584,9.493009567
15.15613402,-0.287304193,-0.438138902,8.250418663
15.20613402,0.114921682,-0.201112941,7.343016624
15.25613402,-0.191536129,-0.071826048,6.789956093
15.30613402,-0.627280831,0.521935999,9.583989143
15.35613402,-0.201112941,0.325611442,11.90636539
15.40613402,-0.512359142,0.33279404,11.70764637
15.45613402,-0.270544797,0.541089594,11.76510715
15.50613402,-0.758961916,-1.161187768,12.40675354
15.55613402,-0.775721371,-2.161964178,12.04044056
15.60613402,0.51954174,-1.295263171,9.349357605
15.65613402,-0.378283858,-0.689530075,9.047688484
15.70613402,-0.37110126,0.050278235,7.668628216
15.75613402,0.399831682,0.320823014,5.841852188
15.80613402,-0.29688102,0.10295067,6.10281992
15.85613402,-0.359130263,0.301669419,8.638279915
15.90613402,-0.004788403,1.15161097,10.45787334
15.95613402,0.256179571,-0.112527482,13.74032402
16.00613402,-0.93134445,0.92895025,11.34612179
16.05613402,-0.782903969,-0.749385119,11.85608673
16.10613402,-1.067813993,-1.757344007,10.57997704
16.15613402,-1.323993564,-0.567425787,8.207323074
16.20613402,-0.694318473,-0.464475125,9.651026726
16.25613402,-0.045489833,0.122104287,8.312667847
16.30613402,-0.284909993,0.423773706,6.670246124
16.35613402,0.04309563,0.318428814,7.249642849
16.40613402,-0.620098233,0.344765037,9.775525093
16.45613402,0.052672438,1.44849205,10.18972206
16.50613402,-0.553060591,0.064643443,13.49372101
16.55613402,-0.48362875,1.996764183,11.06839466
16.60613402,-0.907402456,-1.297657371,13.17768574
16.65613402,0.198718742,-2.236184359,10.82658005
16.70613402,0.749385119,-0.344765037,7.991845131
16.75613402,-0.725443125,0.069431849,9.392453194
16.80613402,-0.191536129,0.342370838,8.097189903
16.85613402,-0.076614454,0.620098233,5.918466568
16.90613402,-0.270544797,0.368707061,6.734889507
16.95613402,0.052672438,0.718260527,9.629479408
17.00613402,-0.033518825,1.067813993,11.8967886
17.05613402,-0.383072257,0.237025961,13.30697346
17.10613402,-0.93134445,2.233790159,11.11627865
17.15613402,-0.086191259,-1.235408068,11.82017422
17.20613402,-1.244984865,-1.8602947,9.81143856
17.25613402,-0.189141929,-0.347159237,8.269572258
17.30613402,0.059855044,-0.16759412,9.478644371
17.35613402,-0.548272193,0.359130263,7.110779285
17.40613402,-0.090979666,0.395043284,5.923254967
17.45613402,-0.612915635,0.81881696,7.319074631
17.50613402,-0.016759412,1.209071875,10.67813969
17.55613402,-0.766144514,0.940921247,12.2511301
17.60613402,-0.617704034,1.233013868,12.22479343
17.65613402,-1.37427175,-1.714248419,13.6206131
17.70613402,-0.193930343,-1.982398987,13.29739666
17.75613402,0.385466486,0.090979666,7.908048153
17.80613402,-0.416591108,0.079008654,8.777143478
17.85613402,-0.227449164,-0.538695395,8.300697327
17.90613402,-0.095768064,0.588973641,5.968744755
17.95613402,0.124498487,0.363918662,5.906495571
18.00613402,-0.141257897,0.052672438,9.945513725
18.05613402,0.172382519,1.309628367,11.22641182
18.10613402,-0.385466486,0.380678058,13.6301899
18.15613402,-0.636857629,0.919373453,11.16895103
18.20613402,-1.479616642,-3.337517262,15.06910515
18.25613402,-0.694318473,-0.979228497,8.789113998
18.30613402,-1.015141487,-0.229843363,7.225700855
18.35613402,-0.531512797,-0.883460403,9.473855972
18.40613402,-0.071826048,0.1316811,7.900865555
18.45613402,0.050278235,0.905008256,6.002263546
18.50613402,-0.588973641,0.63206923,7.87931776
18.55613402,-0.59615624,0.63446343,9.852140427
18.60613402,-0.18674773,0.883460403,11.70525169
18.65613402,-0.916979253,0.598550439,13.01009178
18.70613402,-0.241814375,0.837970614,11.32936287
18.75613402,-0.031124622,-2.051830769,13.01966858
18.80613402,0.301669419,-1.59932673,9.184157372
18.85613402,-0.062249243,0.244208574,7.570465565
18.90613402,-0.521935999,-0.052672438,8.877699852
18.95613402,0.021547815,0.349553436,7.153874874
19.00613402,0.100556471,0.414196909,6.093243122
19.05613402,-0.155623108,0.67037648,7.465120792
19.10613402,0.241814375,1.170764685,11.3173914
19.15613402,-0.119710088,0.897825658,13.12740803
19.20613402,-0.387860686,1.407790542,11.5783596
19.25613402,-1.22822547,-2.257732153,14.63814926
19.30613402,-0.677559078,-0.981622696,10.51533413
19.35613402,-1.316810966,0.517147541,6.646304131
19.40613402,-1.024718285,-0.490811348,8.224082947
19.45613402,-0.062249243,-0.581790984,8.159439087
19.50613402,0.08379706,0.89064306,5.808333397
19.55613402,-0.349553436,0.914585054,7.726089001
19.60613402,-0.361524463,1.07739079,11.16176796
19.65613402,-0.514753342,1.738190413,12.04522896
19.70613402,-0.914585054,0.778115571,12.29422569
19.75613402,-0.37110126,1.419761658,12.17451572
19.80613402,-0.545877993,-1.132457376,13.14416695
19.85613402,0.311246216,-1.941697598,9.92636013
19.90613402,0.177170932,-0.646434486,7.697358608
19.95613402,-0.66798228,-0.105344877,8.999804497
20.00613402,0.177170932,0.347159237,7.565677166
20.05613402,0.356736064,0.878672004,5.801150799
20.10613402,-0.031124622,0.627280831,7.275979042
20.15613402,-0.284909993,1.197100878,9.279925346
20.20613402,0.045489833,1.482010841,12.18888092
20.25613402,-0.122104287,0.823605359,13.30697346
20.30613402,-0.952892304,1.946485996,11.26471901
20.35613402,-0.885854602,-2.171540976,13.35964584
20.40613402,-0.67037648,-1.692700624,9.540893555
20.45613402,-0.995987892,-0.514753342,7.218518257
20.50613402,-0.629675031,-0.545877993,8.710105896
20.55613402,-0.225054964,0.134075299,7.979874134
20.60613402,-0.256179571,1.012747288,5.98550415
20.65613402,-0.217872351,0.694318473,7.694964409
20.70613402,-0.790086567,1.197100878,10.77151299
20.75613402,-0.062249243,1.719036818,12.33732128
20.80613402,-0.500388145,0.524330199,13.41950035
20.85613402,-0.375889659,1.273715258,10.96304989
20.90613402,-0.193930343,-1.838746905,14.21916389
20.95613402,0.20350714,-1.630451322,9.871294022
21.00613402,0.641646028,-0.165199921,7.563282967
21.05613402,-0.74459672,0.153228909,8.276755333
21.10613402,-0.04070143,0.497993946,6.849811077
21.15613402,0.272938997,0.766144514,5.652710438
21.20613402,-0.055066638,0.89064306,7.115567684
21.25613402,-0.311246216,1.659181833,9.830592155
21.30613402,-0.04309563,1.532289028,13.37640476
21.35613402,-0.359130263,0.845153213,12.91193008
21.40613402,-0.864306808,1.575384736,10.85770512
21.45613402,-0.251391172,-1.546654344,13.35006905
21.50613402,-0.603338838,-0.517147541,8.243236542
21.55613402,-0.66798228,-0.246602774,8.269572258
21.60613402,-0.502782345,0.126892686,8.825027466
21.65613402,-0.325611442,0.900219858,6.272808552
21.70613402,-0.213083953,0.679953277,6.306327343
21.75613402,-0.835576415,0.876277804,7.943961143
21.80613402,-0.407014281,2.157175779,10.61828423
21.85613402,-0.438138902,0.311246216,14.00368595
21.90613402,-1.098938584,1.589749932,11.93988419
21.95613402,-0.241814375,-0.134075299,12.22958183
22.00613402,-0.110133275,-2.463633537,13.33809757
22.05613402,0.351947635,-0.9672575,7.891288757
22.10613402,-0.435744703,0.20590134,8.327033043
22.15613402,-0.837970614,0.284909993,8.906430244
22.20613402,-0.141257897,1.017535686,6.172252178
22.25613402,-0.110133275,0.785298169,6.229712963
22.30613402,-0.435744703,0.679953277,9.006986618
22.35613402,-0.045489833,2.300827742,10.79306126
22.40613402,-0.16759412,1.142034173,13.12501335
22.45613402,-0.387860686,1.67115283,12.24873543
22.50613402,-0.471657723,-0.37110126,12.41154194
22.55613402,-0.737414122,-1.513135433,10.81939793
22.60613402,-0.579396784,0.172382519,6.665457726
22.65613402,-0.440533102,-0.251391172,9.026140213
22.70613402,-0.648828685,0.392649084,7.584830761
22.75613402,-0.064643443,0.464475125,6.291962147
22.80613402,-0.126892686,0.885854602,7.472303391
22.85613402,-0.454898328,1.094150186,10.85291672
22.90613402,-0.366312861,1.666364431,11.61666679
22.95613402,-0.919373453,0.677559078,13.16332054
23.00613402,-0.785298169,2.023100376,11.11149025
23.05613402,-0.656011283,-2.322375536,16.06748772
23.10613402,0.66798228,-0.924161851,8.645462036
23.15613402,0.778115571,0.213083953,7.673416615
23.20613402,-0.723048925,0.141257897,8.109161377
23.25613402,-0.311246216,0.55784899,6.363788128
23.30613402,0.169988319,0.9672575,6.071695328
23.35613402,-0.124498487,1.247379065,6.531382084
23.40613402,0.356736064,1.137245774,11.14740276
23.45613402,-0.174776718,1.616086125,12.40196514
23.50613402,-0.138863698,0.703895271,13.03642845
23.55613402,-0.672770679,2.149993181,10.76911926
23.60613402,-0.421379507,-1.810016513,12.83052731
23.65613402,-1.723825216,-1.091755986,9.418789864
23.70613402,-0.260968,-0.011971008,8.068459511
23.75613402,-0.150834709,0.294486821,8.29830265
23.80613402,-0.395043284,0.878672004,6.344634533
23.85613402,-0.114921682,0.711077929,6.483498096
23.90613402,-0.399831682,1.273715258,8.080430984
23.95613402,-0.1316811,1.936909199,11.17134476
24.00613402,-0.40940848,1.04147768,13.31415558
24.05613402,-0.512359142,1.67115283,11.95185471
24.10613402,-0.811634362,-1.728613615,13.41950035
24.15613402,-0.256179571,-1.82198751,11.8680582
24.20613402,0.047884032,-0.423773706,8.875306129
24.25613402,-0.63446343,0.241814375,9.193734169
24.30613402,-0.213083953,0.146046311,7.297526836
24.35613402,-0.02873042,0.59615624,5.98789835
24.40613402,-0.354341865,0.435744703,6.689399719
24.45613402,-0.325611442,1.424550056,8.781931877
24.50613402,-0.51954174,1.403002143,11.48019695
24.55613402,0.1316811,0.756567717,13.26148319
24.60613402,-0.548272193,1.872265697,10.92234802
24.65613402,-0.541089594,-1.675941229,14.17127991
24.70613402,-1.029506683,-1.37427175,9.342175484
24.75613402,-1.089361787,-0.265756398,7.20894146
24.80613402,-0.689530075,-0.169988319,9.196128845
24.85613402,-0.134075299,0.775721371,7.417236805
24.90613402,-0.059855044,0.960074902,6.093243122
24.95613402,-0.612915635,0.93134445,8.152256966
25.00613402,-0.20590134,1.616086125,11.00614548
25.05613402,-0.079008654,1.364694953,11.46104336
25.10613402,-0.998382092,0.871489406,12.84249783
25.15613402,-0.78050977,1.680729628,11.30542088
25.20613402,-0.579396784,-1.999158382,13.96298409
25.25613402,0.342370838,-1.472434044,8.750806808
25.30613402,0.138863698,0.126892686,7.76679039
25.35613402,-0.70628953,0.469263524,8.887276649
25.40613402,0.158017308,0.936132848,6.610390663
25.45613402,0.112527482,0.962469101,6.215347767
25.50613402,-0.20350714,1.024718285,7.642292023
25.55613402,-0.134075299,1.668758631,10.60631371
25.60613402,-0.04309563,1.314416766,13.07952404
25.65613402,-0.869095206,1.029506683,12.53843403
25.70613402,-0.414196909,2.384624958,10.85291672
25.75613402,-0.150834709,-2.159569979,12.99812126
25.80613402,-1.414973259,-0.790086567,7.84340477
25.85613402,-0.304063618,-0.105344877,8.518569946
25.90613402,-0.457292527,0.114921682,9.610325813
25.95613402,-0.426167905,1.015141487,6.543353081
26.00613402,-0.272938997,0.782903969,6.366182327
26.05613402,-0.337582439,0.897825658,9.562441826
26.10613402,0.150834709,1.620874524,11.39161205
26.15613402,-0.610521436,1.237802267,12.31098557
26.20613402,-0.20350714,2.126051188,12.29901409
26.25613402,-1.108515382,-0.457292527,12.74912453
26.30613402,-0.169988319,-1.67115283,10.82418633
26.35613402,0.768538773,-0.644040287,8.145073891
26.40613402,-0.44532153,-0.232237563,9.148244858
26.45613402,-0.395043284,0.440533102,8.195352554
26.50613402,0.229843363,1.149216771,5.714959621
26.55613402,-0.016759412,0.849941611,6.193799973
26.60613402,-0.330399841,0.782903969,10.43393135
26.65613402,-0.248996973,1.977610588,11.26950741
26.70613402,-0.098162271,0.938527048,13.55597019
26.75613402,-0.44532153,2.063801765,11.54484081
26.80613402,-0.418985307,-1.606509328,13.58948898
26.85613402,-0.869095206,-1.529894829,9.418789864
26.90613402,-0.885854602,0.019153614,5.951985359
26.95613402,-0.265756398,-0.191536129,9.109937668
27.00613402,-0.469263524,0.612915635,8.43956089
27.05613402,-0.20590134,0.9648633,6.569689274
27.10613402,-0.342370838,1.146822572,7.117961884
27.15613402,-0.435744703,0.938527048,9.911994934
27.20613402,-0.402225882,1.012747288,12.67969227
27.25613402,-0.792480767,1.537077546,12.28943729
27.30613402,-0.344765037,0.864306808,12.33492756
27.35613402,0.165199921,-2.070984364,14.25986576
27.40613402,1.108515382,-0.895431459,8.190564156
27.45613402,0.198718742,0.057460841,7.888894558
27.50613402,-0.758961916,0.023942016,9.184157372
27.55613402,-0.165199921,0.778115571,6.95276165
27.60613402,-0.181959331,0.940921247,5.793968201
27.65613402,0.098162271,1.127668977,7.924807549
27.70613402,0.14844051,1.302445769,9.878476143
27.75613402,0.275333196,1.343147159,12.07395935
27.80613402,-0.016759412,1.515529633,12.01410389
27.85613402,-0.430956304,-0.454898328,13.73074722
27.90613402,-0.955286503,-1.517923832,12.2511301
27.95613402,-1.654393315,0.067037649,6.50744009
28.00613402,-1.165976286,-0.459686726,8.374917984
28.05613402,0.124498487,-0.229843363,8.947132111
28.10613402,0.153228909,0.665588081,7.072471619
28.15613402,-0.18435353,0.962469101,7.196970463
28.20613402,-0.265756398,0.768538773,8.549694061
28.25613402,-0.414196909,1.091755986,11.39161205
28.30613402,-0.703895271,0.809240162,12.6437788
28.35613402,-0.529118598,2.647987127,11.288661
28.40613402,-0.699106872,-0.435744703,12.99093819
28.45613402,0.454898328,-1.833958507,12.28943729
28.50613402,0.770932972,0.105344877,7.87931776
28.55613402,-0.241814375,0.584185243,9.040505409
28.60613402,-0.426167905,0.486022949,8.327033043
28.65613402,0.074220255,0.92895025,6.136339188
28.70613402,0.150834709,1.18991828,5.894524574
28.75613402,-0.44771573,1.304839969,8.377311707
28.80613402,0.20350714,2.059013367,11.25514221
28.85613402,0.222660765,0.866701007,13.37161636
28.90613402,-0.177170932,2.281674147,11.65736771
28.95613402,-0.440533102,-2.578555346,16.07706451
29.00613402,-0.849941611,0.079008654,8.667010307
29.05613402,-0.572214186,0.574608386,6.689399719
29.10613402,-0.299275219,-0.20590134,8.77235508
29.15613402,0.055066638,0.44771573,7.333439827
29.20613402,-0.256179571,1.15161097,5.997475147
29.25613402,-0.14844051,0.960074902,8.106766701
29.30613402,-0.363918662,1.939303398,10.95107841
29.35613402,-0.675164878,1.199495077,12.31098557
29.40613402,-0.351947635,1.515529633,12.8353157
29.45613402,-0.476446152,1.563413739,11.22641182
29.50613402,-0.48362875,-1.946485996,13.49850941
29.55613402,0.306457818,-1.290474772,8.307879448
29.60613402,-0.342370838,0.713472128,8.037335396
29.65613402,-0.768538773,0.44532153,9.974244118
29.70613402,0.177170932,1.173158884,6.995857239
29.75613402,0.069431849,1.352723956,4.975151062
29.80613402,0.021547815,1.053448796,7.479485989
29.85613402,0.119710088,1.891419291,11.27190113
29.90613402,0.02873042,1.726219416,13.11543655
29.95613402,-0.538695395,1.343147159,12.69166279
30.00613402,-1.07739079,1.343147159,11.52568722
30.05613402,-0.387860686,-1.934514999,12.24394703
30.10613402,-0.751779318,-0.141257897,7.977479935
30.15613402,-0.18435353,0.222660765,8.774748802
30.20613402,-0.311246216,0.584185243,8.406042099
30.25613402,-0.220266551,1.204283476,6.222530365
30.30613402,-0.165199921,0.787692368,7.491456985
30.35613402,-0.962469101,0.988805294,8.626308441
30.40613402,-0.280121595,1.683123827,11.48498535
30.45613402,0.090979666,0.833182216,12.38759995
30.50613402,-1.027112484,2.238578558,12.26788998
30.55613402,-0.715866327,-0.723048925,13.86003399
30.60613402,0.402225882,-1.778891921,10.80024433
30.65613402,0.701501072,-0.421379507,7.999027729
30.70613402,-0.16759412,0.299275219,8.702922821
30.75613402,-0.169988319,0.63446343,7.295132637
30.80613402,0.227449164,0.658405483,6.643909931
30.85613402,-0.512359142,1.139639974,6.385335922
30.90613402,0.04070143,1.323993564,9.694122314
30.95613402,-0.16759412,1.608903527,11.04205799
31.00613402,-0.095768064,0.991199493,12.66772079
31.05613402,-1.180341482,2.549824715,11.99255657
31.10613402,-0.591367841,-1.994369984,15.42344761
31.15613402,-1.070208192,-0.495599747,7.982268333
31.20613402,-0.375889659,0.117315881,6.823474884
31.25613402,-0.16759412,-0.435744703,9.382876396
31.30613402,-0.225054964,0.612915635,8.271966934
31.35613402,0.244208574,0.938527048,7.12993288
31.40613402,-0.294486821,0.885854602,8.339004517
31.45613402,-0.217872351,1.261744261,10.21605873
31.50613402,-0.442927301,1.340752959,11.52568722
31.55613402,-0.502782345,0.900219858,12.36844635
31.60613402,-0.023942016,1.242590666,11.68849277
31.65613402,-0.70628953,-1.841141105,12.928689
31.70613402,0.368707061,-1.134851575,8.918401718
31.75613402,0.016759412,0.02873042,8.839392662
31.80613402,-0.907402456,0.328005642,9.102754593
31.85613402,0.01436521,0.842759013,6.196194172
31.90613402,0.462080926,0.89303726,6.244078159
31.95613402,-0.385466486,0.567425787,7.941566944
32.00613402,-0.253785372,1.726219416,9.251194954
32.05613402,-0.337582439,1.177947283,12.658144
32.10613402,0.114921682,1.091755986,12.19127464
32.15613402,-0.399831682,2.011129379,10.98459721
32.20613402,-0.574608386,-2.815581083,16.03875732
32.25613402,-1.240196466,0.220266551,7.390900612
32.30613402,-0.526724398,-0.155623108,7.718906403
32.35613402,0.337582439,-0.153228909,8.779537201
32.40613402,-0.023942016,0.541089594,7.127538681
32.45613402,0.021547815,0.995987892,6.873753071
32.50613402,-0.260968,0.869095206,8.310274124
32.55613402,-0.227449164,1.786074519,9.619902611
32.60613402,-0.222660765,1.221042871,13.28063679
32.65613402,-0.059855044,1.640028119,12.6533556
32.70613402,-0.265756398,2.372653961,11.49695683
32.75613402,-0.550666392,-0.399831682,12.17212105
32.80613402,1.156399369,-1.474828243,10.57040024
32.85613402,-0.193930343,0.579396784,7.644686222
32.90613402,-0.950498104,1.132457376,8.29830265
32.95613402,-0.193930343,1.355118155,6.236895561
33.00613402,-0.344765037,1.223437071,6.160281181
33.05613402,0.141257897,1.261744261,7.354987621
33.10613402,0.612915635,1.877054095,10.44590187
33.15613402,0.399831682,1.647210717,13.34767437
33.20613402,-0.146046311,1.441309452,13.9246769
33.25613402,-0.16759412,2.358288765,11.25993061
33.30613402,0.035913024,-1.15161097,11.52089882
33.35613402,-1.355118155,-0.636857629,7.836222172
33.40613402,-0.150834709,0.011971008,8.463502884
33.45613402,0.383072257,0.33518824,9.299078941
33.50613402,0.033518825,1.18991828,6.076483727
33.55613402,-0.16759412,0.979228497,6.167463779
33.60613402,-0.244208574,1.130063176,8.588001251
33.65613402,0.234631762,2.410961151,10.83136845
33.70613402,0.423773706,1.015141487,13.65652657
33.75613402,-0.20590134,1.948880196,12.88080502
33.80613402,-0.239420176,0.936132848,12.5743475
33.85613402,0.107739076,-1.304839969,11.78426075
33.90613402,0.517147541,-1.065419793,8.353369713
33.95613402,-0.01436521,0.92895025,7.161057472
34.00613402,-0.603338838,0.703895271,8.681375504
34.05613402,0.126892686,1.213860273,7.060500622
34.10613402,0.308852017,1.161187768,5.94959116
34.15613402,0.04070143,1.125274777,8.312667847
34.20613402,0.272938997,2.291250944,11.30063248
34.25613402,0.727837324,1.580173135,13.64934349
34.30613402,-1.010353088,1.757344007,12.14578533
34.35613402,-0.222660765,2.533065319,11.06121159
34.40613402,-0.263362199,-1.594538331,11.82496262
34.45613402,-0.921767652,-0.196324542,7.496245384
34.50613402,0.222660765,0.361524463,7.991845131
34.55613402,0.40940848,0.976834297,8.339004517
34.60613402,-0.191536129,0.955286503,7.192182064
34.65613402,0.088585466,1.082179189,7.012616634
34.70613402,-0.411802679,1.065419793,8.923190117
34.75613402,-0.337582439,1.752555609,12.05719948
34.80613402,-0.677559078,1.407790542,12.85686302
34.85613402,-0.608127236,2.329558372,11.6813097
34.90613402,0.229843363,0.840364814,12.81616211
34.95613402,0.505176544,-1.33835876,11.93509579
35.00613402,0.687135875,-0.63446343,8.714894295
35.05613402,-0.313640416,0.569819987,8.123526573
35.10613402,-0.253785372,0.600944638,8.104372978
35.15613402,0.639251828,1.070208192,6.7636199
35.20613402,0.325611442,1.237802267,6.663063526
35.25613402,-0.035913024,1.37666595,8.283937454
35.30613402,-0.263362199,1.879448295,10.06282997
35.35613402,0.48362875,1.142034173,13.57991219
35.40613402,-0.18674773,2.176329374,12.47139645
35.45613402,-0.392649084,1.103726983,12.11705494
35.50613402,-0.545877993,-1.59693253,12.24155331
35.55613402,-1.101332784,-0.165199921,7.273584843
35.60613402,-0.399831682,0.016759412,8.109161377
35.65613402,-0.129286885,0.754173517,7.984662533
35.70613402,0.086191259,0.809240162,7.316680431
35.75613402,0.380678058,0.775721371,7.462726593
35.80613402,0.031124622,0.811634362,9.447520256
35.85613402,0.160411507,1.848323703,10.77630138
35.90613402,-0.347159237,1.132457376,12.90235329
35.95613402,-0.378283858,2.710236311,12.27746677
36.00613402,-0.562637389,-1.683123827,14.85123348
36.05613402,0.648828685,-1.570596337,9.643844604
36.10613402,0.687135875,0.20590134,6.35660553
36.15613402,-0.553060591,-0.04309563,8.638279915
36.20613402,0.064643443,0.196324542,8.559270859
36.25613402,0.248996973,1.254561663,5.793968201
36.30613402,0.289698392,0.845153213,6.880935669
36.35613402,-0.363918662,1.144428372,9.344569206
36.40613402,0.299275219,1.484405041,11.58554173
36.45613402,0.794874966,0.823605359,12.39957047
36.50613402,-0.505176544,1.59693253,13.12261963
36.55613402,-0.023942016,-0.924161851,13.38837624
36.60613402,-1.055842996,-1.422155857,9.449913979
36.65613402,-0.699106872,-0.146046311,7.115567684
36.70613402,-0.232237563,-0.318428814,9.157821655
36.75613402,0.02873042,0.665588081,6.859387875
36.80613402,0.143652096,0.696712673,5.904101372
36.85613402,-0.29688102,0.641646028,8.257601738
36.90613402,0.016759412,1.467645645,11.88481712
36.95613402,0.210689753,1.18991828,11.77229023
37.00613402,-0.469263524,1.132457376,13.5080862
37.05613402,-0.308852017,-0.090979666,12.09790134
37.10613402,0.146046311,-2.853888512,15.46893692
37.15613402,0.608127236,-0.845153213,6.859387875
37.20613402,0.052672438,-0.280121595,7.225700855
37.25613402,-0.622492433,-0.229843363,7.666234016
37.30613402,0.160411507,0.74220252,5.892130375
37.35613402,0.210689753,0.701501072,6.938396454
37.40613402,-0.165199921,1.089361787,8.540117264
37.45613402,0.10295067,1.515529633,10.68053341
37.50613402,0.155623108,1.055842996,12.51449203
37.55613402,-0.277727395,0.677559078,12.38520527
37.60613402,-0.514753342,2.391807556,10.89122391
37.65613402,0.301669419,0.229843363,10.80263805
37.70613402,-2.140416384,-2.782062292,10.47702694
37.75613402,0.088585466,-0.620098233,8.197746277
37.80613402,0.069431849,0.792480767,8.791508675
37.85613402,-1.039083481,0.916979253,7.568071365
37.90613402,0.095768064,0.526724398,6.531382084
37.95613402,-0.574608386,1.33835876,6.624756336
38.00613402,0.301669419,2.075772762,11.64300251
38.05613402,-0.63206923,0.792480767,14.2143755
38.10613402,-0.430956304,1.45088625,13.01727486
38.15613402,-0.069431849,0.368707061,13.50090313
38.20613402,-0.146046311,-2.430114746,11.05402946
38.25613402,0.732625723,-1.206677675,8.710105896
38.30613402,-0.85473001,0.225054964,9.313444138
38.35613402,-0.66798228,0.490811348,8.231265068
38.40613402,-0.074220255,1.156399369,4.898536682
38.45613402,-0.351947635,0.543483794,6.445190907
38.50613402,-0.153228909,0.830788016,9.512163162
38.55613402,-0.169988319,1.647210717,11.51850414
38.60613402,0.191536129,1.438915253,13.20641613
38.65613402,-0.988805294,1.350329757,11.91115379
38.70613402,-0.177170932,-2.535459518,15.07628822
38.75613402,-1.110909581,-0.299275219,7.000645638
38.80613402,-1.244984865,-0.301669419,7.558494568
38.85613402,-0.509964943,-0.20350714,9.009381294
38.90613402,-0.306457818,0.758961916,6.689399719
38.95613402,-0.383072257,0.825999558,6.629544735
39.00613402,-0.500388145,0.438138902,8.880094528
39.05613402,-0.40940848,1.472434044,10.27830791
39.10613402,-0.055066638,1.314416766,11.84172153
39.15613402,-0.830788016,1.108515382,13.46259594
39.20613402,-0.263362199,0.914585054,12.51449203
39.25613402,0.090979666,-1.872265697,13.10107136
39.30613402,0.627280831,-1.273715258,9.03571701
39.35613402,-0.316034615,0.239420176,7.975085735
39.40613402,-0.756567717,0.402225882,7.594407558
39.45613402,0.189141929,0.754173517,5.595249176
39.50613402,-0.002394202,0.462080926,6.667851925
39.55613402,0.509964943,1.046266198,8.595184326
39.60613402,0.110133275,1.623268723,11.75313568
39.65613402,0.057460841,1.426944256,13.49372101
39.70613402,-0.802057564,1.357512355,12.20803452
39.75613402,-0.270544797,1.438915253,11.38921738
39.80613402,-0.172382519,-1.434126854,11.47301483
39.85613402,-1.130063176,-0.481234551,7.345410824
39.90613402,-0.033518825,-0.208295554,8.525752068
39.95613402,0.04309563,0.44771573,8.027758598
40.00613402,-0.172382519,0.926556051,6.598419666
40.05613402,-0.277727395,0.763750315,6.983886242
40.10613402,-0.052672438,1.532289028,8.372523308
40.15613402,-0.064643443,1.678335428,11.03487587
40.20613402,0.019153614,1.295263171,13.88158131
40.25613402,0.079008654,2.839523315,11.97340298
40.30613402,-1.213860273,-1.407790542,14.37957573
40.35613402,0.404620081,-1.9321208,12.68687439
40.40613402,0.92895025,0.222660765,6.236895561
40.45613402,-0.105344877,-0.18674773,8.271966934
40.50613402,-0.201112941,0.201112941,7.046135426
40.55613402,0.452504128,0.837970614,5.523423195
40.60613402,0.088585466,1.055842996,6.698976517
40.65613402,-0.08379706,1.314416766,9.907206535
40.70613402,-0.08379706,2.262520552,11.00614548
40.75613402,0.256179571,1.185129881,13.48414421
40.80613402,-0.766144514,2.224213362,12.18169785
40.85613402,-0.375889659,-0.933738649,13.6062479
40.90613402,-1.103726983,-1.551442742,9.902418137
40.95613402,-0.411802679,-0.311246216,6.710947514
41.00613402,-0.143652096,-0.177170932,8.789113998
41.05613402,-0.538695395,0.641646028,7.750030994
41.10613402,-0.517147541,0.995987892,6.083666325
41.15613402,-0.122104287,0.756567717,8.24802494
41.20613402,-0.16759412,1.742978811,10.37407589
41.25613402,0.18674773,1.22583127,11.24795914
41.30613402,-0.457292527,1.805228114,12.91671848
41.35613402,-0.361524463,0.746990919,12.00931549
41.40613402,0.265756398,-2.19308877,15.25824738
41.45613402,0.691924274,-1.453280449,8.532935143
41.50613402,0.146046311,-0.126892686,7.496245384
41.55613402,-0.402225882,-0.119710088,8.671798706
41.60613402,0.272938997,0.914585054,6.189011574
41.65613402,0.20350714,0.912190855,6.038176537
41.70613402,0.158017308,0.794874966,7.927201748
41.75613402,0.452504128,1.685518026,10.14902115
41.80613402,-0.023942016,1.199495077,13.09628296
41.85613402,0.14844051,1.350329757,13.06515884
41.90613402,-0.816422761,0.493205547,12.44745445
41.95613402,-0.198718742,-2.521094322,13.9103117
42.00613402,-1.079784989,0.100556471,5.789179802
42.05613402,-0.63206923,-0.105344877,7.673416615
42.10613402,-0.404620081,-0.002394202,8.506598473
42.15613402,-0.155623108,1.039083481,7.156269073
42.20613402,-0.308852017,0.804451764,6.950367451
42.25613402,-0.311246216,1.139639974,7.903259754
42.30613402,-0.488417149,1.865083098,9.823410034
42.35613402,0.342370838,0.9648633,13.50090313
42.40613402,-0.055066638,1.982398987,13.03164005
42.45613402,-0.804451764,0.469263524,13.2183876
42.50613402,0.18435353,-2.782062292,14.37957573
42.55613402,0.864306808,-0.936132848,6.64869833
42.60613402,0.411802679,0.081402861,7.374141216
42.65613402,-0.20590134,0.316034615,8.305485725
42.70613402,0.713472128,0.627280831,7.048529625
42.75613402,0.387860686,1.175553083,5.477933407
42.80613402,-0.306457818,0.40940848,8.207323074
42.85613402,-0.134075299,2.056619167,10.77151299
42.90613402,0.193930343,1.314416766,13.38358784
42.95613402,0.253785372,2.106897593,12.95981407
43.00613402,-0.675164878,-1.182735682,14.34126854
43.05613402,-0.895431459,-2.070984364,11.06839466
43.10613402,-1.130063176,-0.536301196,6.483498096
43.15613402,-0.402225882,-0.70628953,9.366117477
43.20613402,-0.146046311,0.37349546,7.860164165
43.25613402,0.114921682,0.907402456,5.844246387
43.30613402,-0.37110126,1.067813993,6.981492043
43.35613402,0.172382519,0.89064306,10.21845245
43.40613402,-0.011971008,1.541865945,10.9199543
43.45613402,0.320823014,0.998382092,13.46499062
43.50613402,0.023942016,2.343923569,11.38682365
43.55613402,-0.289698392,-1.812410712,14.22155857
43.60613402,0.981622696,-1.817199111,10.60391903
43.65613402,0.713472128,0.100556471,6.447585106
43.70613402,-0.464475125,0.277727395,8.597578049
43.75613402,-0.227449164,0.543483794,7.24485445
43.80613402,0.179565132,1.086967587,5.398924828
43.85613402,-0.071826048,0.770932972,7.331045628
43.90613402,-0.201112941,1.443703651,10.35731697
43.95613402,0.550666392,2.26730895,10.93910789
44.00613402,0.385466486,1.137245774,12.85686302
44.05613402,-0.502782345,2.841917515,11.79383755
44.10613402,-0.33518824,-0.864306808,13.5224514
44.15613402,-0.991199493,-0.835576415,10.0412817
44.20613402,-0.988805294,-0.117315881,7.000645638
44.25613402,0.007182605,-0.258573771,8.604761124
44.30613402,0.316034615,0.608127236,6.981492043
44.35613402,-0.009576807,0.756567717,6.924031258
44.40613402,-0.342370838,1.108515382,7.764396191
44.45613402,-0.107739076,1.278503656,10.25197124
44.50613402,-0.337582439,1.493981838,11.55920601
44.55613402,-0.505176544,0.981622696,13.2327528
44.60613402,-0.524330199,2.185906172,11.27908421
44.65613402,-0.234631762,-1.063025594,13.69004536
44.70613402,0.842759013,-1.877054095,10.06282997
44.75613402,0.711077929,-0.339976639,7.836222172
44.80613402,-0.162805721,0.021547815,8.667010307
44.85613402,0.021547815,0.502782345,7.570465565
44.90613402,0.304063618,1.029506683,5.899312973
44.95613402,0.37110126,0.92895025,6.744466305
45.00613402,0.620098233,1.405396342,9.856928825
45.05613402,0.703895271,2.30801034,12.33971596
45.10613402,-0.213083953,1.137245774,12.35647488
45.15613402,-0.505176544,2.075772762,11.83693314
45.20613402,-0.29688102,-0.581790984,12.40675354
45.25613402,-1.055842996,-0.948103845,8.437167168
45.30613402,-0.708683729,-0.567425787,7.838616371
45.35613402,0.105344877,0.20590134,8.944737434
45.40613402,0.294486821,0.768538773,7.424419403
45.45613402,0.426167905,0.775721371,6.177040577
45.50613402,-0.244208574,0.768538773,7.905653954
45.55613402,0.325611442,1.733402014,10.90319443
45.60613402,-0.172382519,1.22822547,13.14177322
45.65613402,-0.423773706,1.285686255,13.41950035
45.70613402,-0.153228909,1.78128612,10.89601231
45.75613402,-0.141257897,-1.295263171,13.28303146
45.80613402,1.027112484,-1.948880196,9.311050415
45.85613402,0.711077929,-0.378283858,7.800309181
45.90613402,-0.414196909,-0.04070143,9.59835434
45.95613402,0.033518825,0.926556051,7.28555584
46.00613402,0.356736064,1.307234168,5.013458252
46.05613402,0.37349546,0.92895025,6.445190907
46.10613402,0.248996973,1.343147159,10.00297451
46.15613402,0.478840351,1.8579005,12.33971596
46.20613402,0.04309563,0.998382092,13.42189503
46.25613402,-0.366312861,2.542642117,11.24317074
46.30613402,0.122104287,-2.545036316,14.67166805
46.35613402,-0.859518409,-0.44532153,8.063671112
46.40613402,-0.833182216,-0.1316811,6.68461132
46.45613402,-0.165199921,-0.507570744,9.124302864
46.50613402,0.320823014,0.476446152,7.532158375
46.55613402,0.349553436,0.869095206,6.643909931
46.60613402,0.016759412,0.814028561,7.625532627
46.65613402,-0.021547815,1.156399369,10.03888798
46.70613402,-0.342370838,1.659181833,12.32295609
46.75613402,-0.18674773,1.45088625,12.69645119
46.80613402,-0.924161851,1.350329757,12.08832455
46.85613402,-0.035913024,-0.70628953,13.33570385
46.90613402,0.859518409,-2.013523579,11.12585545
46.95613402,0.876277804,-0.9648633,7.656657219
47.00613402,-0.026336219,0.268150598,7.785943985
47.05613402,-0.44771573,0.399831682,6.981492043
47.10613402,0.02873042,0.512359142,6.924031258
47.15613402,-0.079008654,0.579396784,7.723694801
47.20613402,0.138863698,1.261744261,10.83376312
47.25613402,0.1316811,1.611297727,12.2607069
47.30613402,-0.007182605,0.574608386,13.04839897
47.35613402,-0.428562105,1.539471745,11.46104336
47.40613402,-0.019153614,-2.226607561,13.96059036
47.45613402,-1.539471745,-0.792480767,8.066065788
47.50613402,-0.502782345,-0.306457818,7.196970463
47.55613402,0.29688102,0.105344877,8.382100105
47.60613402,0.129286885,0.679953277,6.998251438
47.65613402,-0.146046311,0.933738649,6.337451935
47.70613402,-0.304063618,1.163581967,7.232883453
47.75613402,-0.636857629,1.589749932,10.75954247
47.80613402,0.1316811,1.434126854,13.20641613
47.85613402,-0.651222885,1.865083098,11.83214474
47.90613402,-1.074996591,1.429338455,11.40597725
47.95613402,-0.098162271,-1.55862534,14.31972027
48.00613402,0.675164878,-0.9648633,8.880094528
48.05613402,0.009576807,-0.033518825,8.128314972
48.10613402,-0.773327172,0.20350714,8.899248123
48.15613402,-0.019153614,0.617704034,6.943184853
48.20613402,0.241814375,0.974440098,5.561730385
48.25613402,0.18674773,1.067813993,7.323863029
48.30613402,0.016759412,1.606509328,10.25675964
48.35613402,0.268150598,1.9321208,12.48336792
48.40613402,0.246602774,1.403002143,12.62701988
48.45613402,0.18674773,1.956062794,11.66215611
48.50613402,-0.44532153,-2.389413357,14.08508873
48.55613402,-1.120486379,-0.37349546,7.627926826
48.60613402,-0.272938997,-0.287304193,7.603984833
48.65613402,-0.011971008,-0.428562105,8.391676903
48.70613402,0.162805721,0.471657723,6.995857239
48.75613402,-0.124498487,0.895431459,6.643909931
48.80613402,-0.701501072,0.933738649,9.114726067
48.85613402,-1.039083481,1.910573006,11.2982378
48.90613402,-0.699106872,1.41018486,12.36605167
48.95613402,-0.761356115,1.434126854,11.92312431
49.00613402,-0.51954174,0.294486821,10.91277122
49.05613402,0.574608386,-1.927332401,14.54238129
49.10613402,0.823605359,-1.247379065,9.823410034
49.15613402,-0.14844051,0.29688102,7.788338184
49.20613402,-0.553060591,-0.505176544,8.633491516
49.25613402,0.258573771,0.768538773,5.849034786
49.30613402,0.253785372,0.933738649,6.059724331
49.35613402,-0.011971008,1.048660398,8.453926086
49.40613402,0.452504128,2.23139596,9.761159897
49.45613402,-0.126892686,1.405396342,12.98614979
49.50613402,-0.349553436,1.414973259,12.81376743
49.55613402,-0.122104287,1.668758631,11.08036518
49.60613402,-0.452504128,-1.752555609,13.59906578
49.65613402,-1.719036818,-0.098162271,7.723694801
49.70613402,-0.790086567,-0.471657723,8.66940403
49.75613402,-0.129286885,0.450109929,8.382100105
49.80613402,-0.229843363,0.895431459,6.675034523
49.85613402,-0.459686726,1.089361787,6.576871872
49.90613402,-0.497993946,0.648828685,8.410830498
49.95613402,0.442927301,1.927332401,10.32858658
50.00613402,-0.248996973,1.340752959,13.43865395
50.05613402,-0.395043284,2.257732153,12.36365795
50.10613402,-0.234631762,0.055066638,13.41950035
50.15613402,0.347159237,-1.575384736,12.59110641
50.20613402,0.270544797,-0.268150598,7.249642849
50.25613402,-0.095768064,0.392649084,7.800309181
50.30613402,-0.89303726,0.134075299,8.221688271
50.35613402,0.057460841,1.022324085,6.265625954
50.40613402,0.248996973,1.065419793,7.256825447
50.45613402,0.10295067,1.242590666,8.750806808
50.50613402,0.239420176,1.628057122,10.24718285
50.55613402,0.241814375,1.22822547,12.44745445
50.60613402,-0.912190855,1.867477298,12.16733265
50.65613402,-0.814028561,1.534683347,12.31816769
50.70613402,-0.89303726,-1.434126854,12.38999367
50.75613402,-1.094150186,-0.263362199,7.647080421
50.80613402,-0.356736064,-0.256179571,8.305485725
50.85613402,-0.469263524,0.586579442,7.663839817
50.90613402,-0.124498487,1.139639974,6.217741966
50.95613402,-0.074220255,1.122880578,7.7284832
51.00613402,-0.773327172,1.323993564,9.519346237
51.05613402,-0.349553436,1.841141105,11.47540855
51.10613402,-0.481234551,1.446097851,13.03882217
51.15613402,-0.63206923,3.126827478,10.68532181
51.20613402,-0.316034615,-0.090979666,14.22874069
51.25613402,0.727837324,-1.458068848,11.80102062
51.30613402,0.81881696,-0.402225882,8.171410561
51.35613402,-0.33518824,0.438138902,7.445967197
51.40613402,-0.263362199,0.481234551,6.947973251
51.45613402,0.292092621,0.785298169,6.854599476
51.50613402,0.10295067,1.048660398,7.711723804
51.55613402,-0.033518825,1.48679924,8.877699852
51.60613402,-0.062249243,1.719036818,11.47062016
51.65613402,0.198718742,1.048660398,13.08910084
51.70613402,-0.284909993,2.564189911,10.89601231
51.75613402,-1.106121182,-1.910573006,15.4617548
51.80613402,-1.587355733,-0.306457818,9.385271072
51.85613402,-0.995987892,-0.244208574,7.484274387
51.90613402,-0.337582439,-0.361524463,8.501810074
51.95613402,-0.081402861,0.605733037,6.871358871
52.00613402,0.14844051,0.825999558,6.196194172
52.05613402,-0.210689753,0.806845963,7.350199223
52.10613402,-0.313640416,1.431732655,10.10592556
52.15613402,-0.385466486,1.343147159,12.23676491
52.20613402,-0.684741676,2.288856745,12.60547161
52.25613402,-0.457292527,1.824381709,11.91833591
52.30613402,0.289698392,-3.385401249,16.94615936
52.35613402,0.584185243,-0.260968,7.371747017
52.40613402,0.095768064,0.562637389,7.697358608
52.45613402,-0.63446343,0.44771573,8.667010307
52.50613402,0.227449164,0.864306808,5.602431774
52.55613402,-0.023942016,1.292868972,5.319916248
52.60613402,-0.055066638,1.022324085,8.760383606
52.65613402,0.265756398,2.142810583,11.0133276
52.70613402,0.622492433,1.795651317,12.00692177
52.75613402,-0.134075299,1.78368032,12.35886955
52.80613402,-0.912190855,-0.150834709,13.42907715
52.85613402,-0.916979253,-0.93134445,11.32217979
52.90613402,-1.958456993,0.002394202,7.271190643
52.95613402,-0.787692368,-0.586579442,9.200917244
53.00613402,0.253785372,0.035913024,8.303091049
53.05613402,0.16759412,1.213860273,6.208165169
53.10613402,-0.440533102,1.012747288,6.931213856
53.15613402,-0.33279404,0.938527048,9.835380554
53.20613402,-0.284909993,1.716642618,10.84094524
53.25613402,-0.359130263,0.933738649,12.70363426
53.30613402,-0.725443125,2.075772762,11.83214474
53.35613402,-0.785298169,-0.349553436,12.50012684
53.40613402,0.543483794,-1.78128612,12.24634171
53.45613402,0.462080926,-0.70628953,7.80509758
53.50613402,-0.227449164,-0.474051923,9.583989143
53.55613402,0.023942016,0.646434486,6.754043102
53.60613402,0.488417149,0.756567717,6.282385349
53.65613402,-0.299275219,0.701501072,7.216124058
53.70613402,0.318428814,0.878672004,9.351752281
53.75613402,-0.067037649,1.182735682,10.9103775
53.80613402,0.165199921,0.505176544,13.46020222
53.85613402,-0.751779318,1.63523972,11.32936287
53.90613402,-0.354341865,-0.486022949,12.16254425
53.95613402,-1.443703651,-1.575384736,9.861717224
54.00613402,-0.974440098,-0.59376204,8.056488991
54.05613402,-0.062249243,-0.057460841,8.901641846
54.10613402,-0.385466486,0.395043284,8.204929352
54.15613402,-0.095768064,0.354341865,7.17063427
54.20613402,-0.01436521,0.644040287,7.13232708
54.25613402,-0.260968,0.905008256,9.411606789
54.30613402,-0.270544797,1.161187768,11.40358257
54.35613402,0.052672438,0.488417149,12.94066048
54.40613402,0.02873042,2.22900176,10.79066753
54.45613402,-0.500388145,-0.459686726,13.13937855
54.50613402,0.476446152,-2.470816135,9.734824181
54.55613402,0.225054964,-0.821211159,7.888894558
54.60613402,-0.828393817,0.213083953,9.229647636
54.65613402,-0.002394202,0.33518824,8.638279915
54.70613402,0.117315881,0.974440098,5.829881191
54.75613402,0.155623108,0.277727395,7.383718014
54.80613402,-0.04070143,0.955286503,9.794678688
54.85613402,-0.512359142,1.029506683,11.54484081
54.90613402,-0.325611442,-0.055066638,12.77546024
54.95613402,-1.233013868,1.352723956,10.68532181
55.00613402,-0.979228497,-3.581725836,14.40112305
55.05613402,-1.355118155,-0.859518409,8.317456245
55.10613402,-0.778115571,-0.622492433,8.470685959
55.15613402,-0.591367841,-0.648828685,9.469067574
55.20613402,-0.531512797,0.397437483,7.134721279
55.25613402,-0.426167905,0.366312861,6.629544735
55.30613402,-0.572214186,0.349553436,8.774748802
55.35613402,-0.20350714,0.859518409,10.67813969
55.40613402,-0.457292527,0.196324542,11.99734497
55.45613402,-0.507570744,0.782903969,11.66215611
55.50613402,-0.316034615,-0.316034615,12.07635307
55.55613402,0.562637389,-2.547430515,13.96059036
55.60613402,0.196324542,-1.082179189,7.886500359
55.65613402,-0.220266551,-0.378283858,7.668628216
55.70613402,-0.758961916,-0.272938997,8.566453934
55.75613402,0.292092621,0.531512797,6.581660271
55.80613402,-0.18435353,0.466869324,6.847416878
55.85613402,-0.280121595,0.313640416,8.74601841
55.90613402,-0.37110126,0.847547412,9.81143856
55.95613402,-0.402225882,0.01436521,13.03642845
56.00613402,-0.478840351,1.209071875,11.8728466
56.05613402,-1.051054597,-1.367089152,12.08832455
56.10613402,-1.242590666,-1.59693253,10.3261919
56.15613402,-1.398213744,-0.67037648,7.908048153
56.20613402,-0.869095206,-1.362300754,10.13704967
56.25613402,-0.541089594,0.294486821,8.090007782
56.30613402,-0.08379706,0.749385119,6.351817131
56.35613402,-0.411802679,0.253785372,7.254431248
56.40613402,-0.306457818,0.428562105,9.29189682
56.45613402,-0.617704034,0.806845963,10.60391903
56.50613402,-0.414196909,-0.009576807,12.88319969
56.55613402,-0.567425787,1.273715258,10.93192482
56.60613402,-0.627280831,-0.691924274,13.11543655
56.65613402,0.383072257,-2.494758129,10.68053341
56.70613402,0.270544797,-2.257732153,8.470685959
56.75613402,-0.572214186,-0.33279404,8.935160637
56.80613402,-0.749385119,0.026336219,8.590395927
56.85613402,-0.011971008,0.660799682,6.382941723
56.90613402,0.150834709,0.220266551,6.766014099
56.95613402,-0.263362199,0.172382519,9.191340446
57.00613402,-0.328005642,0.782903969,11.15937424
57.05613402,-0.871489406,-0.150834709,13.05558205
57.10613402,-1.053448796,0.861912608,11.61906052
57.15613402,-1.11569798,-1.355118155,12.98614979
57.20613402,-1.869871497,-1.838746905,10.19451046
57.25613402,-0.840364814,-1.031900883,7.793126583
57.30613402,-0.418985307,-0.675164878,9.562441826
57.35613402,-0.639251828,0.584185243,7.201758862
57.40613402,-0.308852017,0.244208574,6.569689274
57.45613402,-0.622492433,-0.016759412,7.723694801
57.50613402,-0.323217243,0.720654726,9.591172218
57.55613402,-0.912190855,0.105344877,11.8920002
57.60613402,-0.656011283,-0.007182605,13.17050362
57.65613402,-0.37110126,1.738190413,10.82418633
57.70613402,-1.52510643,-2.114080191,12.82334423
57.75613402,0.217872351,-3.481169224,10.40998936
57.80613402,0.181959331,-1.096544385,7.529764175
57.85613402,-0.588973641,-0.806845963,9.878476143
57.90613402,-0.033518825,-0.064643443,8.238448143
57.95613402,-0.002394202,0.488417149,6.505045891
58.00613402,-0.20590134,-0.225054964,7.503427982
58.05613402,-0.344765037,0.490811348,9.327810287
58.10613402,-0.256179571,0.021547815,11.98776817
58.15613402,-0.330399841,-0.093373865,12.30619717
58.20613402,-1.103726983,0.574608386,10.67335129
58.25613402,-1.398213744,-3.521870613,14.98530865
58.30613402,-1.400607944,-0.562637389,7.841010571
58.35613402,-0.825999558,-0.85473001,8.573636055
58.40613402,-0.663193882,-1.163581967,9.165003777
58.45613402,-0.217872351,0.016759412,6.945579052
58.50613402,-0.229843363,0.18674773,7.173028469
58.55613402,0.095768064,0.141257897,8.252813339
58.60613402,-0.610521436,0.9672575,9.725247383
58.65613402,-0.768538773,0.052672438,12.68208599
58.70613402,-0.9648633,-0.047884032,12.23915863
58.75613402,-0.768538773,0.198718742,11.22401714
58.80613402,0.10295067,-2.487575531,13.51047993
58.85613402,0.761356115,-2.298433542,9.612719536
58.90613402,0.155623108,-1.060631394,8.918401718
58.95613402,-1.367089152,-0.617704034,8.863334656
59.00613402,-0.222660765,0.55784899,6.268020153
59.05613402,0.105344877,0.18674773,6.306327343
59.10613402,-0.567425787,-0.234631762,8.358158112
59.15613402,-0.16759412,1.175553083,9.710882187
59.20613402,-0.505176544,0.339976639,12.30380249
59.25613402,-0.617704034,0.481234551,12.24155331
59.30613402,-0.969651699,0.770932972,11.44188976
59.35613402,-0.486022949,-2.683900118,15.08586502
59.40613402,-1.367089152,-0.902614057,7.228095055
59.45613402,-0.835576415,-1.165976286,7.156269073
59.50613402,-0.502782345,-0.488417149,8.980650902
59.55613402,-0.486022949,0.541089594,6.856993675
59.60613402,-0.497993946,0.454898328,6.813898087
59.65613402,-0.675164878,0.08379706,8.537723541
59.70613402,-0.598550439,1.036689281,10.13226128
59.75613402,-1.364694953,0.141257897,12.08592987
59.80613402,-0.620098233,0.545877993,12.79461384
59.85613402,-0.37349546,0.730231524,10.86249352
59.90613402,-0.378283858,-2.633621931,14.90151119
59.95613402,0.620098233,-1.776497602,8.159439087
60.00613402,-0.009576807,-0.598550439,7.678205013
60.05613402,-0.775721371,-0.586579442,8.961497307
60.10613402,0.033518825,0.316034615,6.593631268
60.15613402,-0.095768064,0.248996973,6.732495308
60.20613402,-0.363918662,0.428562105,8.056488991
60.25613402,-0.411802679,0.895431459,10.13944435
60.30613402,-0.342370838,0.349553436,12.47857952
60.35613402,-0.277727395,0.562637389,11.85848141
60.40613402,-0.560243189,0.787692368,10.55364132
60.45613402,-0.560243189,-2.997540474,14.74828243
60.50613402,-1.55862534,-0.708683729,8.209717751
60.55613402,-1.039083481,-0.636857629,7.486668587
60.60613402,-0.423773706,-1.00556469,9.670180321
60.65613402,-0.775721371,0.354341865,7.271190643
60.70613402,-0.337582439,0.541089594,6.868964672
60.75613402,-0.548272193,0.222660765,7.965508938
60.80613402,-0.711077929,0.751779318,9.878476143
60.85613402,-0.677559078,0.452504128,11.93509579
60.90613402,-0.940921247,0.138863698,12.83770943
60.95613402,-0.450109929,1.149216771,10.77151299
61.00613402,-0.751779318,-1.173158884,12.55279922
61.05613402,0.294486821,-3.040636063,10.57040024
61.10613402,0.107739076,-0.991199493,8.178592682
61.15613402,-0.778115571,-0.651222885,8.7843256
61.20613402,-0.411802679,0.421379507,7.469909191
61.25613402,0.284909993,0.550666392,6.667851925
61.30613402,0.124498487,0.122104287,7.508216381
61.35613402,0.10295067,0.773327172,9.449913979
61.40613402,-0.426167905,0.457292527,11.65018559
61.45613402,-0.210689753,0.177170932,12.20563984
61.50613402,-0.656011283,1.163581967,10.67335129
61.55613402,-0.220266551,-1.632845521,13.41710663
61.60613402,-1.800439715,-1.968033791,9.581595421
61.65613402,-1.381454349,-0.960074902,7.196970463
61.70613402,-0.342370838,-0.730231524,9.260771751
61.75613402,-0.574608386,0.366312861,8.238448143
61.80613402,-0.33518824,0.33279404,6.655880928
61.85613402,-0.454898328,0.29688102,7.134721279
61.90613402,-0.656011283,0.572214186,10.39083576
61.95613402,-0.775721371,0.603338838,11.68849277
62.00613402,-0.754173517,-0.007182605,12.88798809
62.05613402,-0.732625723,1.125274777,10.69250488
62.10613402,-0.457292527,-2.123656988,13.53442192
62.15613402,0.368707061,-2.130839586,9.239224434
62.20613402,-0.071826048,-0.51954174,8.279149055
62.25613402,-0.993593693,-0.402225882,9.634267807
62.30613402,-0.481234551,0.354341865,7.501033783
62.35613402,0.143652096,0.653617084,5.604825974
62.40613402,0.08379706,0.124498487,7.194576263
62.45613402,0.045489833,1.084573388,9.425971985
62.50613402,-0.665588081,0.579396784,12.52646351
62.55613402,-0.900219858,0.260968,12.62462521
62.60613402,-1.620874524,1.699883223,10.76433086
62.65613402,-0.464475125,-0.799663365,12.08353615
62.70613402,-2.494758129,-2.85867691,10.56561184
62.75613402,-0.723048925,-0.756567717,7.819462776
62.80613402,-0.064643443,-0.342370838,8.372523308
62.85613402,-0.512359142,0.471657723,7.273584843
62.90613402,-0.215478152,0.076614454,7.062894821
62.95613402,-0.622492433,0.660799682,7.630321026
63.00613402,-0.385466486,0.871489406,10.93192482
63.05613402,-0.773327172,0.466869324,12.24394703
63.10613402,-0.85473001,0.004788403,12.64617348
63.15613402,-0.282515794,0.337582439,11.75313568
63.20613402,-0.33518824,-2.456450939,13.28303146
63.25613402,0.548272193,-2.066195965,9.038111687
63.30613402,-0.18674773,-0.85473001,8.820239067
63.35613402,-0.694318473,-0.464475125,8.774748802
63.40613402,-0.002394202,0.330399841,7.110779285
63.45613402,-0.076614454,0.414196909,5.992686749
63.50613402,0.052672438,-0.158017308,7.915230751
63.55613402,-0.18674773,0.866701007,9.342175484
63.60613402,-0.610521436,0.316034615,12.67969227
63.65613402,-0.505176544,0.136469498,12.31816769
63.70613402,-1.134851575,0.972045898,11.01572227
63.75613402,-1.130063176,-2.671929121,13.66849709
63.80613402,-1.726219416,-1.367089152,8.374917984
63.85613402,-1.031900883,-0.969651699,8.099584579
63.90613402,-0.476446152,-0.715866327,9.380482674
63.95613402,-0.51954174,0.248996973,7.426813602
64.00613402,-0.110133275,0.248996973,6.299144745
64.05613402,-0.696712673,0.258573771,7.819462776
64.10613402,-0.825999558,0.44532153,10.35971069
64.15613402,-0.814028561,0.426167905,11.78904915
64.20613402,-0.845153213,0.275333196,12.17451572
64.25613402,-0.687135875,0.66798228,11.96861458
64.30613402,-0.48362875,-2.904166698,13.67089176
64.35613402,0.407014281,-2.334346771,9.440337181
64.40613402,0.14844051,-0.816422761,7.745242596
64.45613402,-0.699106872,-0.708683729,9.200917244
64.50613402,-0.134075299,0.181959331,7.108384609
64.55613402,0.169988319,0.361524463,5.94959116
64.60613402,-0.380678058,0.086191259,7.577648163
64.65613402,-0.179565132,0.529118598,10.10592556
64.70613402,-0.562637389,0.462080926,12.2750721
64.75613402,-0.718260527,0.009576807,12.40435886
64.80613402,-1.149216771,0.871489406,10.97023201
64.85613402,-1.244984865,-2.961627483,14.38915253
64.90613402,-1.498770237,-0.639251828,8.032546997
64.95613402,-1.230619669,-1.146822572,7.929595947
65.00613402,-0.610521436,-1.240196466,9.33020401
65.05613402,-0.349553436,0.330399841,6.861782074
65.10613402,0.019153614,0.550666392,6.481103897
65.15613402,-0.399831682,0.04070143,8.406042099
65.20613402,-0.457292527,0.629675031,10.23521233
65.25613402,-0.909796655,0.392649084,11.44667816
65.30613402,-0.268150598,0.059855044,12.46660805
65.35613402,-0.466869324,1.680729628,11.09951878
65.40613402,-0.682347477,-0.581790984,12.83292103
65.45613402,0.050278235,-3.435679436,10.97502041
65.50613402,-0.021547815,-1.362300754,8.38928318
65.55613402,-0.63446343,-1.194706678,10.0604353
65.60613402,-0.246602774,0.718260527,7.20894146
65.65613402,0.20350714,0.682347477,5.75805521
65.70613402,0.050278235,-0.14844051,6.821080685
65.75613402,-0.172382519,0.555454791,8.755595207
65.80613402,-0.339976639,0.715866327,11.56159973
65.85613402,-0.256179571,0.292092621,13.06515884
65.90613402,-1.137245774,1.30005157,11.6023016
65.95613402,-0.354341865,-2.178723574,13.96059036
66.00613402,-1.704671621,-2.604891539,10.12986755
66.05613402,-1.283292055,-0.579396784,6.208165169
66.10613402,-0.459686726,-0.9672575,9.136273384
66.15613402,-0.873883605,0.179565132,8.054094315
66.20613402,-0.189141929,0.565031588,6.059724331
66.25613402,-0.48362875,0.306457818,7.489062786
66.30613402,-0.272938997,0.617704034,10.78108978
66.35613402,-0.459686726,0.763750315,11.44428444
66.40613402,-0.727837324,-0.248996973,13.58230591
66.45613402,-0.797269166,0.679953277,11.26232433
66.50613402,-1.024718285,-2.446874142,13.47217274
66.55613402,0.150834709,-1.989581585,9.440337181
66.60613402,0.1316811,-0.93134445,7.666234016
66.65613402,-0.89064306,-0.802057564,8.923190117
66.70613402,-0.284909993,0.294486821,7.019799232
66.75613402,-0.023942016,0.385466486,6.038176537
66.80613402,-0.215478152,0.098162271,6.976703644
66.85613402,-0.517147541,0.572214186,9.457097054
66.90613402,-0.481234551,0.878672004,11.5879364
66.95613402,-0.215478152,0.246602774,12.35168648
67.00613402,-0.969651699,0.785298169,11.26711273
67.05613402,-1.290474772,-3.404554844,15.04755783
67.10613402,-1.079784989,-1.326387763,10.03888798
67.15613402,-1.948880196,-0.92895025,7.393294811
67.20613402,-0.974440098,-1.438915253,8.906430244
67.25613402,-0.158017308,-0.160411507,7.022193432
67.30613402,-0.385466486,0.469263524,6.576871872
67.35613402,-0.718260527,0.385466486,7.771578789
67.40613402,-0.390254885,0.567425787,10.49618053
67.45613402,-0.440533102,0.900219858,11.2838726
67.50613402,-0.433350503,0.229843363,12.6629324
67.55613402,-0.330399841,1.22822547,11.56878281
67.60613402,-0.770932972,-1.048660398,13.17289734
67.65613402,0.20350714,-2.075772762,11.53765774
67.70613402,0.754173517,-0.509964943,7.24485445
67.75613402,-0.459686726,-0.021547815,8.149862289
67.80613402,-0.354341865,0.074220255,7.793126583
67.85613402,-0.246602774,0.418985307,6.552929878
67.90613402,-0.136469498,0.656011283,6.715735912
67.95613402,-0.169988319,0.67037648,9.196128845
68.00613402,0.129286885,1.103726983,11.5783596
68.05613402,-0.076614454,0.275333196,12.87362289
68.10613402,-0.497993946,1.015141487,11.79862595
68.15613402,-1.44849205,-3.967192173,16.10340118
68.20613402,-1.45088625,-0.122104287,7.477091789
68.25613402,-1.101332784,-0.756567717,8.271966934
68.30613402,-0.63446343,-0.926556051,8.547300339
68.35613402,0.134075299,0.019153614,7.151480675
68.40613402,-0.265756398,0.423773706,6.928819656
68.45613402,-0.368707061,0.237025961,8.980650902
68.50613402,-0.677559078,0.823605359,10.54885292
68.55613402,-0.44771573,0.735019922,11.77707863
68.60613402,-0.577002585,0.383072257,13.04839897
68.65613402,-0.244208574,0.495599747,11.73398209
68.70613402,-0.418985307,-2.437297344,13.34528065
68.75613402,0.495599747,-1.577778935,8.418013573
68.80613402,-0.098162271,-0.337582439,7.012616634
68.85613402,-0.682347477,-0.93134445,9.722852707
68.90613402,-0.287304193,0.251391172,7.261613846
68.95613402,0.270544797,0.426167905,6.358999729
69.00613402,0.055066638,0.440533102,7.477091789
69.05613402,0.122104287,0.988805294,9.96466732
69.10613402,-0.438138902,0.835576415,12.2750721
69.15613402,-0.40940848,0.732625723,12.44745445
69.20613402,-0.806845963,0.885854602,11.02051067
69.25613402,-0.66798228,-3.399766445,14.81292629
69.30613402,-1.103726983,-0.44532153,7.39808321
69.35613402,-1.22822547,-0.933738649,7.709329605
69.40613402,-0.430956304,-1.082179189,9.052476883
69.45613402,-0.045489833,0.234631762,6.80192709
69.50613402,-0.146046311,0.325611442,7.20654726
69.55613402,-0.407014281,0.201112941,8.576030731
69.60613402,-0.687135875,0.902614057,9.591172218
69.65613402,-0.395043284,0.897825658,11.48498535
69.70613402,-0.675164878,0.158017308,13.97256088
69.75613402,-0.378283858,1.572990537,10.79066753
69.80613402,-1.601720929,-2.41335535,13.6062479
69.85613402,0.119710088,-2.868253708,10.85770512
69.90613402,0.169988319,-1.017535686,7.196970463
69.95613402,-0.430956304,-0.763750315,8.722076416
70.00613402,-0.169988319,0.122104287,7.493851185
70.05613402,0.440533102,0.584185243,6.390124321
70.10613402,-0.174776718,0.407014281,7.010222435
70.15613402,-0.234631762,0.588973641,9.320627213
70.20613402,-0.407014281,0.500388145,12.29901409
70.25613402,-0.330399841,0.380678058,12.51449203
70.30613402,-0.969651699,1.046266198,11.63342571
70.35613402,-0.533906996,-1.37427175,13.32133865
70.40613402,-1.355118155,-1.594538331,9.258378029
70.45613402,-0.976834297,-0.718260527,6.794744492
70.50613402,-0.395043284,-1.015141487,9.363722801
70.55613402,-0.301669419,0.289698392,7.864952564
70.60613402,0.047884032,0.531512797,6.782773495
70.65613402,-0.217872351,0.495599747,7.61595583
70.70613402,-0.395043284,0.579396784,10.25436592
70.75613402,-0.155623108,1.211466074,10.78827286
70.80613402,-0.881066203,-0.136469498,13.6110363
70.85613402,-1.084573388,1.060631394,11.95185471
70.90613402,-0.811634362,-2.147598982,13.38119316
70.95613402,0.665588081,-2.422932148,9.756371498
71.00613402,0.126892686,-0.849941611,7.603984833
71.05613402,-0.916979253,-0.387860686,9.212887764
71.10613402,-0.265756398,0.533906996,7.20654726
71.15613402,0.189141929,0.665588081,5.925649166
71.20613402,-0.323217243,0.395043284,6.651092529
71.25613402,-0.708683729,0.505176544,9.639056206
71.30613402,-0.440533102,1.015141487,12.59589481
71.35613402,0.162805721,0.392649084,13.07473564
71.40613402,-0.512359142,1.59693253,10.40998936
71.45613402,-0.48362875,-0.639251828,12.6533556
71.50613402,-1.544260144,-2.233790159,10.22084713
71.55613402,-0.835576415,-0.797269166,7.826645374
71.60613402,-0.138863698,-0.720654726,9.567230225
71.65613402,-0.143652096,0.735019922,6.574477673
71.70613402,0.172382519,0.481234551,6.299144745
71.75613402,-0.318428814,0.778115571,7.829039574
71.80613402,-0.529118598,1.283292055,10.44350815
71.85613402,-0.763750315,0.268150598,13.16332054
71.90613402,-1.101332784,0.833182216,13.21359921
71.95613402,-0.737414122,0.960074902,11.42752457
72.00613402,-0.004788403,-1.563413739,12.06677628
72.05613402,0.292092621,-2.401384354,10.33816338
72.10613402,-0.304063618,-0.160411507,8.884882927
72.15613402,-0.969651699,0.282515794,8.418013573
72.20613402,-0.146046311,0.761356115,6.370970726
72.25613402,0.01436521,0.713472128,5.803544998
72.30613402,-0.179565132,0.55784899,7.24485445
72.35613402,0.045489833,1.41018486,10.35252857
72.40613402,-0.225054964,0.584185243,13.38598156
72.45613402,-0.842759013,1.000776291,12.71081638
72.50613402,-1.027112484,0.794874966,10.75475407
72.55613402,-0.756567717,-2.856282711,14.02283955
72.60613402,-1.522712231,-0.323217243,7.51300478
72.65613402,-0.828393817,-0.675164878,8.678980827
72.70613402,-0.368707061,-0.277727395,9.267954826
72.75613402,0.026336219,0.840364814,6.186617374
72.80613402,-0.20590134,0.459686726,6.971915245
72.85613402,-0.687135875,0.299275219,9.720458984
72.90613402,-0.51954174,1.977610588,10.30943298
72.95613402,-0.751779318,0.124498487,12.99812126
73.00613402,-0.694318473,1.529894829,11.52089882
73.05613402,-0.691924274,-1.295263171,13.69243908
73.10613402,0.732625723,-2.219424963,12.16493893
73.15613402,0.536301196,-0.502782345,6.7636199
73.20613402,-0.794874966,-0.354341865,8.633491516
73.25613402,-0.691924274,0.04309563,8.552088737
73.30613402,0.002394202,0.92895025,5.961562157
73.35613402,-0.177170932,0.641646028,6.351817131
73.40613402,-0.114921682,0.675164878,8.916007042
73.45613402,-0.023942016,1.482010841,11.18570995
73.50613402,0.021547815,0.536301196,13.47935581
73.55613402,-0.426167905,1.539471745,12.27267838
73.60613402,-0.454898328,-0.517147541,12.54322243
73.65613402,-0.9672575,-2.513911724,12.04522896
73.70613402,-1.477222443,0.038307227,5.963956356
73.75613402,-0.646434486,-0.93134445,8.623914719
73.80613402,-0.220266551,-0.399831682,8.901641846
73.85613402,-0.081402861,0.778115571,6.349422932
73.90613402,-0.366312861,0.881066203,7.331045628
73.95613402,-0.545877993,0.399831682,10.55842972
74.00613402,-0.588973641,1.589749932,11.56399441
74.05613402,-0.598550439,0.873883605,12.47618484
74.10613402,-0.471657723,1.577778935,12.18888092
74.15613402,-0.888248801,-1.726219416,14.38915253
74.20613402,0.507570744,-1.640028119,11.25035381
74.25613402,0.495599747,-0.749385119,6.732495308
74.30613402,-0.263362199,-0.430956304,7.524975777
74.35613402,-0.363918662,-0.289698392,7.352593422
74.40613402,0.146046311,1.010353088,5.736507416
74.45613402,0.136469498,0.696712673,6.777985096
74.50613402,0.019153614,0.986411095,9.33020401
74.55613402,0.136469498,1.414973259,11.27190113
74.60613402,0.124498487,0.969651699,13.5080862
74.65613402,-0.912190855,1.235408068,12.78743172
74.70613402,-0.51954174,0.732625723,12.05241108
74.75613402,-0.957680702,-2.262520552,11.49456215
74.80613402,-1.877054095,-0.89303726,6.746860504
74.85613402,-0.66798228,-0.723048925,8.609549522
74.90613402,-0.14844051,0.44771573,8.748413086
74.95613402,-0.457292527,0.847547412,6.708553314
75.00613402,-0.18674773,0.806845963,6.766014099
75.05613402,-0.572214186,0.787692368,9.658209801
75.10613402,-0.105344877,2.126051188,11.29105568
75.15613402,-0.646434486,1.00556469,13.75229454
75.20613402,-0.158017308,1.74776721,12.48815632
75.25613402,-0.878672004,-0.124498487,12.55279922
75.30613402,0.088585466,-2.106897593,10.81221485
75.35613402,0.905008256,-1.074996591,6.797138691
75.40613402,-0.062249243,0.081402861,8.207323074
75.45613402,-0.533906996,0.196324542,9.011775017
75.50613402,0.342370838,0.701501072,6.708553314
75.55613402,0.162805721,0.641646028,6.263231754
75.60613402,0.366312861,0.682347477,8.827422142
75.65613402,0.316034615,1.436521053,11.43949604
75.70613402,0.079008654,0.926556051,13.5080862
75.75613402,-0.308852017,1.168370485,12.22479343
75.80613402,-0.924161851,0.466869324,12.9334774
75.85613402,-0.847547412,-2.499546528,11.33654499
75.90613402,-1.59932673,-1.007958889,6.457161903
75.95613402,-0.804451764,-0.869095206,7.836222172
76.00613402,-0.033518825,-0.37110126,9.229647636
76.05613402,-0.150834709,0.89064306,6.643909931
76.10613402,-0.560243189,0.600944638,7.275979042
76.15613402,-0.926556051,0.797269166,9.404424667
76.20613402,-0.493205547,0.89064306,11.27190113
76.25613402,-0.062249243,0.356736064,12.04283428
76.30613402,0.126892686,0.945709646,12.01410389
76.35613402,-0.536301196,-1.584961534,13.46738434
76.40613402,0.562637389,-1.886630893,12.81855583
76.45613402,0.773327172,-0.701501072,7.498639584
76.50613402,0.222660765,-0.873883605,8.118738174
76.55613402,-0.486022949,-0.565031588,7.702147007
76.60613402,-0.146046311,0.524330199,6.205770969
76.65613402,-0.196324542,0.392649084,7.192182064
76.70613402,-0.292092621,0.715866327,9.375694275
76.75613402,0.079008654,1.288080573,10.72123528
76.80613402,-0.316034615,0.196324542,12.67490387
76.85613402,-0.193930343,0.830788016,11.52808094
76.90613402,-0.591367841,0.380678058,11.62384892
76.95613402,-0.486022949,-3.088520288,14.08987713
77.00613402,-1.288080573,-0.227449164,6.538564682
77.05613402,-1.089361787,-0.787692368,7.790732384
77.10613402,-0.067037649,-0.85473001,8.954314232
77.15613402,0.126892686,0.359130263,6.91445446
77.20613402,-0.227449164,0.648828685,7.503427982
77.25613402,-0.325611442,0.778115571,9.18894577
77.30613402,-0.48362875,0.732625723,10.56561184
77.35613402,-0.062249243,0.785298169,12.03804588
77.40613402,-1.00317049,0.694318473,11.34851646
77.45613402,-0.847547412,1.022324085,10.9055891
77.50613402,-0.04309563,-2.331952572,14.37957573
77.55613402,0.385466486,-1.63523972,9.289502144
77.60613402,0.284909993,-0.624886632,7.280767441
77.65613402,-0.40940848,-0.581790984,8.990227699
77.70613402,0.02873042,0.430956304,6.871358871
77.75613402,0.442927301,0.703895271,6.083666325
77.80613402,-0.107739076,0.442927301,7.800309181
77.85613402,-0.095768064,1.058237195,10.02931118
77.90613402,0.287304193,0.866701007,12.16254425
77.95613402,-0.016759412,0.313640416,13.31655025
78.00613402,-0.292092621,1.539471745,10.52491093
78.05613402,-0.581790984,-3.27287364,15.65329075
78.10613402,-1.403002143,-0.363918662,7.642292023
78.15613402,-1.297657371,-0.675164878,6.962338448
78.20613402,-0.328005642,-1.316810966,9.337387085
78.25613402,0.026336219,-0.04070143,7.220912457
78.30613402,-0.069431849,0.708683729,6.677428722
78.35613402,-0.359130263,0.222660765,9.105149269
78.40613402,-0.521935999,0.790086567,11.12106705
78.45613402,-0.67037648,1.156399369,10.75714779
78.50613402,-0.735019922,0.390254885,12.09790134
78.55613402,-0.435744703,1.647210717,11.21922874
78.60613402,-0.950498104,-2.260126352,14.36521053
78.65613402,0.44532153,-1.965639591,9.892841339
78.70613402,0.383072257,-0.720654726,7.28316164
78.75613402,-0.74459672,-0.644040287,8.81066227
78.80613402,-0.20590134,0.603338838,6.955155849
78.85613402,0.29688102,0.727837324,6.141127586
78.90613402,-0.007182605,0.342370838,7.702147007
78.95613402,0.129286885,0.857124209,9.344569206
79.00613402,0.047884032,0.995987892,11.6717329
79.05613402,-0.076614454,0.210689753,13.31894398
79.10613402,-0.847547412,1.589749932,11.39161205
79.15613402,-0.311246216,-1.15161097,13.00769806
79.20613402,-1.654393315,-2.037465572,9.512163162
79.25613402,-1.170764685,-0.756567717,6.87614727
79.30613402,0.107739076,-0.392649084,9.17697525
79.35613402,0.155623108,0.603338838,8.429984093
79.40613402,0.033518825,0.677559078,6.718130112
79.45613402,-0.100556471,0.308852017,7.584830761
79.50613402,-0.502782345,0.816422761,9.569623947
79.55613402,-0.938527048,0.526724398,11.5975132
79.60613402,-1.132457376,0.196324542,14.24310589
79.65613402,-0.402225882,2.468421936,10.56082344
79.70613402,-0.814028561,-1.980004787,13.76187134
79.75613402,0.517147541,-2.461239338,10.01255131
79.80613402,0.66798228,-0.466869324,6.828263283
79.85613402,-0.600944638,-0.081402861,8.544905663
79.90613402,-0.260968,0.246602774,8.382100105
79.95613402,0.387860686,0.885854602,5.755661011
80.00613402,0.026336219,0.572214186,6.641515732
80.05613402,-0.399831682,0.74220252,9.739612579
80.10613402,-0.270544797,0.969651699,11.85369301
80.15613402,0.007182605,0.749385119,12.74912453
80.20613402,-0.861912608,1.589749932,11.83453941
80.25613402,-0.416591108,-1.546654344,13.99171448
80.30613402,-1.113303781,-1.721431017,9.806650162
80.35613402,-1.350329757,-0.715866327,6.72291851
80.40613402,-0.505176544,-0.773327172,8.683769226
80.45613402,0.062249243,0.055066638,8.336610794
80.50613402,0.126892686,0.799663365,6.639121532
80.55613402,-0.366312861,0.380678058,7.611167431
80.60613402,-0.620098233,0.651222885,10.01255131
80.65613402,-0.284909993,1.460463047,10.84812832
80.70613402,-0.337582439,0.316034615,13.13698483
80.75613402,-0.804451764,1.745373011,11.38442898
80.80613402,-1.110909581,-2.432508945,14.80095482
80.85613402,0.174776718,-2.420537949,10.91755962
80.90613402,0.725443125,-0.402225882,6.945579052
80.95613402,-0.497993946,-0.814028561,8.518569946
81.00613402,-0.380678058,0.14844051,7.331045628
81.05613402,0.44771573,0.845153213,6.382941723
81.10613402,0.038307227,0.548272193,7.472303391
81.15613402,-0.107739076,0.763750315,9.861717224
81.20613402,0.031124622,1.043871999,11.54723454
81.25613402,0.153228909,0.263362199,12.84728622
81.30613402,-0.641646028,1.67115283,11.56399441
81.35613402,-0.40940848,-0.895431459,13.68525696
81.40613402,-1.335964561,-1.723825216,10.01494598
81.45613402,-1.094150186,-0.541089594,6.449979305
81.50613402,-0.40940848,-0.991199493,8.212111473
81.55613402,-0.229843363,-0.057460841,7.946355343
81.60613402,-0.311246216,0.900219858,6.603208065
81.65613402,-0.304063618,0.493205547,7.69257021
81.70613402,-0.533906996,0.81881696,9.809044838
81.75613402,-0.282515794,1.37666595,11.49695683
81.80613402,-0.40940848,0.533906996,13.07952404
81.85613402,-0.814028561,1.391031146,11.3030262
81.90613402,-0.895431459,-2.652775526,14.95178986
81.95613402,0.694318473,-2.056619167,10.42914295
82.00613402,0.895431459,-0.615309835,6.493074894
82.05613402,-0.172382519,-0.610521436,8.197746277
82.10613402,-0.699106872,0.248996973,7.666234016
82.15613402,0.239420176,0.785298169,6.066906929
82.20613402,0.047884032,0.277727395,7.235277653
82.25613402,-0.067037649,0.900219858,9.198522568
82.30613402,0.002394202,0.916979253,11.80820274
82.35613402,0.136469498,0.615309835,12.97178459
82.40613402,-0.222660765,1.335964561,11.36288166
82.45613402,-0.9648633,-2.604891539,15.12177753
82.50613402,-1.278503656,-1.101332784,9.979032516
82.55613402,-1.070208192,-0.064643443,6.634333134
82.60613402,-0.533906996,-1.206677675,8.602366447
82.65613402,0.165199921,0.011971008,7.199364662
82.70613402,0.04309563,0.938527048,5.647922039
82.75613402,-0.308852017,0.588973641,7.431602001
82.80613402,-0.246602774,0.78050977,9.782708168
82.85613402,-0.40940848,1.553836942,10.66137981
82.90613402,-1.371877551,0.299275219,13.54878712
82.95613402,-0.821211159,1.661576033,12.75391293
83.00613402,-0.08379706,-0.418985307,12.51449203
83.05613402,0.208295554,-2.288856745,10.29506683
83.10613402,0.33518824,-1.774103403,8.7843256
83.15613402,-0.222660765,-0.438138902,8.518569946
83.20613402,-0.095768064,0.114921682,8.949525833
83.25613402,0.301669419,1.110909581,6.603208065
83.30613402,0.284909993,0.782903969,6.502651691
83.35613402,-0.071826048,0.986411095,8.626308441
83.40613402,-0.081402861,1.8579005,10.04846478
83.45613402,0.553060591,0.514753342,13.63258457
83.50613402,-0.612915635,1.237802267,13.40034676
83.55613402,-0.703895271,0.773327172,12.53604031
83.60613402,-0.905008256,-2.509123325,11.07797146
83.65613402,-0.768538773,-0.948103845,7.393294811
83.70613402,0.237025961,-0.375889659,9.751583099
83.75613402,-0.404620081,1.122880578,8.015787125
83.80613402,-0.402225882,0.847547412,5.164293289
83.85613402,0.174776718,0.823605359,6.43321991
83.90613402,-0.090979666,1.628057122,10.02452278
83.95613402,0.035913024,1.326387763,11.99255657
84.00613402,-0.694318473,0.629675031,13.9103117
84.05613402,-0.227449164,1.527500629,11.41315937
84.10613402,-0.009576807,-2.446874142,14.61660099
84.15613402,0.627280831,-1.994369984,9.502586365
84.20613402,0.486022949,0.100556471,7.445967197
84.25613402,-0.605733037,-0.098162271,9.184157372
84.30613402,-0.193930343,0.746990919,6.995857239
84.35613402,-0.263362199,0.711077929,5.623979568
84.40613402,-0.201112941,0.536301196,7.017405033
84.45613402,0.117315881,0.639251828,10.36449909
84.50613402,0.16759412,1.541865945,12.11944866
84.55613402,-0.258573771,0.718260527,13.15135002
84.60613402,-0.531512797,1.326387763,11.53286934
84.65613402,-0.526724398,-2.990357876,14.5040741
84.70613402,-1.505952835,-0.112527482,7.350199223
84.75613402,-0.924161851,-0.493205547,8.470685959
84.80613402,-0.153228909,-0.181959331,8.769960403
84.85613402,-0.174776718,0.761356115,6.016628742
84.90613402,-0.20350714,0.876277804,6.447585106
84.95613402,-0.29688102,0.957680702,9.435548782
85.00613402,0.246602774,2.238578558,9.583989143
85.05613402,-0.375889659,0.624886632,11.80102062
85.10613402,-1.30005157,1.120486379,13.77384281
85.15613402,-0.775721371,0.100556471,12.6437788
85.20613402,0.905008256,-2.384624958,13.38358784
85.25613402,0.794874966,-1.137245774,8.259995461
85.30613402,-0.222660765,-0.069431849,8.173804283
85.35613402,-0.263362199,0.124498487,7.829039574
85.40613402,0.466869324,0.897825658,6.167463779
85.45613402,-0.119710088,0.74220252,6.842628479
85.50613402,0.064643443,0.648828685,10.20169353
85.55613402,-0.011971008,1.881842494,10.59673691
85.60613402,1.098938584,0.715866327,13.6254015
85.65613402,0.04309563,0.976834297,12.952631
85.70613402,-0.756567717,0.320823014,13.36443424
85.75613402,-1.508347034,-2.437297344,11.23359394
85.80613402,-1.204283476,-0.316034615,6.306327343
85.85613402,-0.55784899,-0.581790984,8.341399193
85.90613402,-0.306457818,0.641646028,7.757213593
85.95613402,-0.081402861,0.962469101,6.531382084
86.00613402,-0.438138902,0.749385119,6.746860504
86.05613402,-0.550666392,0.974440098,9.871294022
86.10613402,0.136469498,1.845929503,11.36767006
86.15613402,-0.380678058,1.010353088,13.26387787
86.20613402,-0.454898328,1.216254473,11.9853735
86.25613402,-0.095768064,-2.774879694,16.19198608
86.30613402,0.639251828,-1.15161097,9.289502144
86.35613402,0.500388145,-0.617704034,7.299921036
86.40613402,-0.835576415,-0.615309835,8.339004517
86.45613402,-0.045489833,0.507570744,6.682217121
86.50613402,0.217872351,0.830788016,5.995080948
86.55613402,-0.478840351,0.746990919,7.153874874
86.60613402,-0.119710088,0.993593693,10.94629002
86.65613402,0.237025961,1.563413739,12.26788998
86.70613402,0.385466486,0.995987892,12.5695591
86.75613402,-0.37349546,0.064643443,11.65497398
86.80613402,-0.533906996,-2.846705914,15.39950562
86.85613402,-0.766144514,0.301669419,6.852205276
86.90613402,-1.288080573,-0.462080926,7.333439827
86.95613402,-0.390254885,-0.703895271,7.960720539
87.00613402,0.18435353,0.390254885,6.708553314
87.05613402,-0.380678058,0.900219858,7.026981831
87.10613402,-0.375889659,0.730231524,9.028534889
87.15613402,-0.306457818,0.881066203,10.54885292
87.20613402,-0.237025961,0.895431459,11.77707863
87.25613402,-0.308852017,0.646434486,12.56716442
87.30613402,-0.526724398,-0.225054964,12.44266605
87.35613402,0.141257897,-1.8579005,15.5311861
87.40613402,0.847547412,-0.440533102,8.231265068
87.45613402,0.181959331,-0.402225882,7.297526836
87.50613402,-0.29688102,-0.656011283,8.099584579
87.55613402,0.150834709,0.428562105,6.289567947
87.60613402,0.189141929,0.699106872,6.636727333
87.65613402,0.021547815,1.108515382,7.726089001
87.70613402,0.04070143,1.352723956,10.06282997
87.75613402,0.270544797,1.572990537,11.49216843
87.80613402,-0.114921682,0.938527048,12.79461384
87.85613402,-0.411802679,1.78368032,11.47301483
87.90613402,-0.29688102,-2.614468336,14.84883881
87.95613402,-1.122880578,0.035913024,7.982268333
88.00613402,-0.948103845,-0.548272193,7.539340973
88.05613402,-0.282515794,-0.550666392,8.829815865
88.10613402,0.062249243,0.950498104,6.823474884
88.15613402,-0.023942016,0.725443125,7.264008045
88.20613402,-0.023942016,0.909796655,8.717288017
88.25613402,-0.272938997,1.067813993,10.51293945
88.30613402,-0.201112941,1.252167463,11.54723454
88.35613402,-0.454898328,1.070208192,11.93509579
88.40613402,-0.790086567,0.560243189,12.33971596
88.45613402,0,-2.585737944,15.1768446
88.50613402,0.521935999,-0.677559078,7.99423933
88.55613402,-0.033518825,-0.48362875,8.121131897
88.60613402,-0.320823014,-0.052672438,8.231265068
88.65613402,0.253785372,0.486022949,6.033388138
88.70613402,0.126892686,0.921767652,6.607996464
88.75613402,-0.20590134,0.600944638,8.789113998
88.80613402,0.004788403,1.276109457,10.30703831
88.85613402,-0.124498487,0.847547412,11.92312431
88.90613402,-0.095768064,1.079784989,11.59990692
88.95613402,-0.92895025,-2.171540976,15.07149982
89.00613402,-1.091755986,-0.545877993,10.07240677
89.05613402,-1.276109457,0.095768064,7.745242596
89.10613402,-0.746990919,-0.732625723,8.7843256
89.15613402,0.026336219,-0.033518825,7.424419403
89.20613402,-0.107739076,0.433350503,6.378153324
89.25613402,0.110133275,0.665588081,8.161833763
89.30613402,0.071826048,0.770932972,10.7332058
89.35613402,-0.153228909,1.091755986,11.47062016
89.40613402,-0.361524463,0.064643443,12.95023727
89.45613402,0.007182605,1.742978811,10.99178028
89.50613402,-0.957680702,-0.584185243,12.35647488
89.55613402,0.287304193,-2.940079689,10.48899746
89.60613402,0.227449164,-0.761356115,8.044517517
89.65613402,-0.01436521,-0.079008654,9.22725296
89.70613402,0.011971008,0.282515794,7.429207802
89.75613402,0.138863698,0.560243189,6.979097843
89.80613402,0.090979666,0.275333196,7.256825447
89.85613402,-0.098162271,0.646434486,10.01973438
89.90613402,-0.533906996,0.457292527,12.00452709
89.95613402,-0.294486821,0.277727395,11.98776817
90.00613402,-0.957680702,1.577778935,10.75954247
90.05613402,-0.675164878,-3.620033026,15.03558636
90.10613402,-1.45088625,-0.768538773,7.975085735
90.15613402,-0.440533102,-0.881066203,8.671798706
90.20613402,-0.260968,-0.361524463,9.454702377
90.25613402,-0.361524463,0.608127236,6.739677906
90.30613402,-0.198718742,0.435744703,6.813898087
90.35613402,-0.569819987,0.160411507,8.590395927
90.40613402,-0.600944638,1.132457376,9.856928825
90.45613402,-0.746990919,0.136469498,12.03804588
90.50613402,-0.572214186,0.881066203,12.53604031
90.55613402,-0.246602774,-0.665588081,13.15374374
90.60613402,0.553060591,-2.300827742,12.69166279
90.65613402,0.426167905,-1.515529633,8.607154846
90.70613402,-0.095768064,-0.416591108,9.248801231
90.75613402,-0.845153213,0.246602774,8.214506149
90.80613402,-0.256179571,1.012747288,5.935225964
90.85613402,-0.33518824,0.397437483,6.775590897
90.90613402,-0.282515794,0.656011283,8.437167168
90.95613402,-0.33279404,1.144428372,10.07719517
91.00613402,0.390254885,0.732625723,12.06677628
91.05613402,-0.828393817,1.213860273,12.69645119
91.10613402,-0.677559078,-0.509964943,13.33809757
91.15613402,-1.194706678,-1.41018486,10.47223854
91.20613402,-1.326387763,-0.189141929,7.275979042
91.25613402,-0.325611442,-0.385466486,8.650250435
91.30613402,-0.090979666,0.37110126,8.025363922
91.35613402,-0.031124622,0.689530075,6.330269337
91.40613402,-0.237025961,0.694318473,7.422025204
91.45613402,-0.778115571,0.641646028,9.806650162
91.50613402,-0.074220255,1.793257117,10.95107841
91.55613402,-0.816422761,0.679953277,12.80658531
91.60613402,-0.337582439,1.987187386,11.85129833
91.65613402,-0.079008654,0.792480767,12.39717674
91.70613402,-0.584185243,-2.341529369,10.75235939
91.75613402,0.260968,-1.261744261,8.513781548
91.80613402,-0.656011283,-0.14844051,9.493009567
91.85613402,-0.344765037,1.067813993,8.259995461
91.90613402,0.29688102,1.125274777,5.760449409
91.95613402,0.047884032,0.584185243,7.031770229
92.00613402,-0.047884032,1.070208192,8.482656479
92.05613402,-0.404620081,1.41018486,11.288661
92.10613402,0.126892686,1.029506683,13.07234097
92.15613402,-0.766144514,1.991975784,12.10029507
92.20613402,-0.189141929,-1.78368032,14.02044487
92.25613402,-1.158793569,-0.78050977,8.607154846
92.30613402,-0.739808321,-0.397437483,9.004592896
92.35613402,-0.366312861,-0.129286885,9.998186111
92.40613402,-0.055066638,1.065419793,6.378153324
92.45613402,-0.035913024,0.430956304,5.892130375
92.50613402,-0.756567717,0.215478152,8.118738174
92.55613402,-0.220266551,1.999158382,9.028534889
92.60613402,-0.450109929,1.194706678,11.6956749
92.65613402,-0.864306808,1.707065821,12.40196514
92.70613402,-0.679953277,0.177170932,13.07234097
92.75613402,0.124498487,-1.249773264,14.02523327
92.80613402,0.933738649,-0.888248801,9.430760384
92.85613402,0.126892686,-0.210689753,8.801085472
92.90613402,-0.644040287,0.189141929,8.245630264
92.95613402,0.067037649,0.852335811,5.365406036
93.00613402,0.08379706,0.761356115,6.121973515
93.05613402,-0.213083953,0.70628953,8.743624687
93.10613402,0.392649084,1.695094824,10.27591324
93.15613402,0.162805721,1.493981838,12.21521664
93.20613402,-0.48362875,0.802057564,13.13219643
93.25613402,-0.694318473,2.422932148,11.40597725
93.30613402,-0.612915635,-2.262520552,13.01009178
93.35613402,-1.201889277,-0.48362875,7.979874134
93.40613402,0.026336219,0.20350714,8.372523308
93.45613402,-0.222660765,0.490811348,8.767566681
93.50613402,-0.454898328,0.720654726,6.385335922
93.55613402,-0.328005642,0.912190855,5.954379559
93.60613402,-0.833182216,0.622492433,9.198522568
93.65613402,-0.20350714,1.790862918,11.83214474
93.70613402,-0.268150598,0.825999558,12.47379112
93.75613402,-0.339976639,1.855506301,12.22718811
93.80613402,-0.835576415,-0.375889659,13.28063679
93.85613402,0.435744703,-1.786074519,12.72757626
93.90613402,0.282515794,-0.718260527,7.69017601
93.95613402,-0.957680702,0.08379706,8.523358345
94.00613402,-0.802057564,0.311246216,7.697358608
94.05613402,0.442927301,0.89303726,5.13556242
94.10613402,0.320823014,0.737414122,6.155492783
94.15613402,-0.165199921,1.019929886,8.978256226
94.20613402,-0.004788403,1.685518026,11.26471901
94.25613402,0.059855044,1.359906554,12.95981407
94.30613402,-0.885854602,1.886630893,13.26387787
94.35613402,-0.825999558,0.945709646,11.76031876
94.40613402,-0.909796655,-2.149993181,12.62223148
94.45613402,-0.995987892,0.038307227,7.175422668
94.50613402,0.150834709,-0.351947635,8.856152534
94.55613402,-0.349553436,0.098162271,7.635109425
94.60613402,0.059855044,0.737414122,6.035782337
94.65613402,-0.395043284,0.852335811,6.502651691
94.70613402,-0.375889659,1.675941229,8.865729332
94.75613402,0.181959331,1.649604917,11.83214474
94.80613402,-0.938527048,1.233013868,13.64216137
94.85613402,-0.10295067,2.226607561,12.43308926
94.90613402,-0.600944638,-0.727837324,14.22634697
94.95613402,0.715866327,-2.33913517,11.69806957
95.00613402,-0.378283858,0.48362875,6.964732647
95.05613402,-1.312022567,0.217872351,8.863334656
95.10613402,-0.198718742,0.675164878,6.713341713
95.15613402,0.260968,0.541089594,5.91128397
95.20613402,0.038307227,0.93134445,7.017405033
95.25613402,-0.256179571,1.37427175,10.0556469
95.30613402,-0.502782345,1.565807939,12.64617348
95.35613402,0.04070143,0.833182216,12.87122822
95.40613402,-0.998382092,2.157175779,11.48259163
95.45613402,0.153228909,0.833182216,11.26711273
95.50613402,-1.321599364,-1.314416766,8.348581314
95.55613402,-0.545877993,-0.766144514,7.987056732
95.60613402,0.105344877,-0.397437483,10.22324085
95.65613402,-0.464475125,0.651222885,9.186552048
95.70613402,-0.004788403,0.749385119,6.560112476
95.75613402,-0.308852017,0.888248801,7.180211067
95.80613402,-0.469263524,1.532289028,9.421183586
95.85613402,-0.260968,1.307234168,12.19606304
95.90613402,-0.720654726,0.711077929,13.96298409
95.95613402,-0.098162271,2.506729126,11.2838726
96.00613402,-0.847547412,-0.057460841,12.04044056
96.05613402,0.452504128,-1.951274395,9.143456459
96.10613402,-0.524330199,0.529118598,7.905653954
96.15613402,-1.060631394,0.462080926,10.47463226
96.20613402,-0.122104287,1.00317049,8.214506149
96.25613402,0.035913024,1.132457376,5.13556242
96.30613402,0.095768064,0.426167905,7.259219646
96.35613402,0.023942016,1.431732655,9.246406555
96.40613402,0.112527482,1.980004787,12.31577396
96.45613402,0.1316811,1.453280449,12.91671848
96.50613402,-0.337582439,1.956062794,12.22718811
96.55613402,-0.368707061,-2.197877169,14.53519821
96.60613402,-1.173158884,0.610521436,6.339846134
96.65613402,-0.703895271,-0.071826048,7.575253963
96.70613402,-0.181959331,-0.521935999,9.785101891
96.75613402,-0.213083953,0.792480767,6.825869083
96.80613402,-0.100556471,1.470039845,6.066906929
96.85613402,-0.378283858,0.905008256,8.365341187
96.90613402,-0.622492433,1.465251446,11.42273617
96.95613402,-0.344765037,0.984016895,12.69166279
97.00613402,-0.945709646,2.056619167,11.71243477
97.05613402,-0.418985307,-1.980004787,14.53040981
97.10613402,0.349553436,-1.323993564,13.42428875
97.15613402,0.622492433,0.37110126,6.921637058
97.20613402,-0.502782345,-0.624886632,8.43956089
97.25613402,-0.51954174,-0.114921682,7.553706169
97.30613402,0.407014281,0.790086567,6.196194172
97.35613402,0.062249243,1.060631394,6.698976517
97.40613402,-0.011971008,0.85473001,9.418789864
97.45613402,0.330399841,1.929726601,10.44829655
97.50613402,0.217872351,1.41018486,12.80897903
97.55613402,-0.33518824,1.45088625,11.99255657
97.60613402,-0.677559078,0.493205547,11.43949604
97.65613402,-0.883460403,-2.056619167,13.11064816
97.70613402,-1.285686255,0.150834709,6.87614727
97.75613402,-0.497993946,-0.66798228,8.38928318
97.80613402,-0.189141929,-0.141257897,8.262390137
97.85613402,0.320823014,0.924161851,7.173028469
97.90613402,-0.435744703,1.086967587,7.369352818
97.95613402,-0.399831682,0.857124209,9.698910713
98.00613402,-0.89303726,1.903390408,10.23042393
98.05613402,-0.531512797,1.616086125,11.21444035
98.10613402,-0.708683729,1.443703651,12.44027233
98.15613402,-0.51954174,-0.545877993,12.69884586
98.20613402,0.639251828,-2.207453966,13.83369732
98.25613402,0.560243189,-0.158017308,7.460332394
98.30613402,-0.18674773,0.050278235,8.35097599
98.35613402,-0.213083953,-0.265756398,7.69257021
98.40613402,0.050278235,0.682347477,5.499481201
98.45613402,-0.095768064,0.691924274,6.828263283
98.50613402,-0.071826048,0.909796655,9.691728592
98.55613402,0.474051923,1.551442742,10.73799419
98.60613402,-0.150834709,1.010353088,12.97417927
98.65613402,0.023942016,1.082179189,11.52329254
98.70613402,-0.658405483,-2.025494576,14.11142445
98.75613402,-0.608127236,-0.847547412,9.583989143
98.80613402,-1.340752959,-0.079008654,7.041347027
98.85613402,-0.701501072,-0.574608386,9.488221169
98.90613402,-0.155623108,0.292092621,7.802703381
98.95613402,-0.399831682,0.878672004,6.730101109
99.00613402,-0.684741676,0.735019922,7.515398979
99.05613402,-0.359130263,0.984016895,10.19929886
99.10613402,-0.603338838,1.55862534,11.16895103
99.15613402,-0.579396784,0.792480767,12.2702837
99.20613402,-0.639251828,0.916979253,11.56878281
99.25613402,-0.260968,-2.679111719,15.24148846
99.30613402,0.658405483,-1.254561663,9.404424667
99.35613402,0.816422761,-0.466869324,7.874529362
99.40613402,-0.471657723,-0.428562105,8.63109684
99.45613402,-0.328005642,0.514753342,6.68700552
99.50613402,-0.16759412,0.627280831,6.560112476
99.55613402,-0.165199921,0.89064306,7.137115479
99.60613402,-0.105344877,1.015141487,9.184157372
99.65613402,0.541089594,1.070208192,11.46104336
99.70613402,0.095768064,0.699106872,12.5647707
99.75613402,-0.033518825,1.833958507,10.96544361
99.80613402,-0.871489406,-2.882618904,15.63653088
99.85613402,-1.029506683,0.107739076,8.118738174
99.90613402,-0.48362875,0.059855044,7.577648163
99.95613402,-0.387860686,-0.536301196,9.397241592
100.006134,-0.390254885,0.486022949,7.405265808
100.056134,-0.179565132,1.130063176,5.75805521
100.106134,-0.478840351,0.869095206,8.152256966
100.156134,0.294486821,1.259350061,11.25035381
100.206134,-0.421379507,1.572990537,11.35569859
100.256134,-0.905008256,0.976834297,13.33330917
100.306134,-0.624886632,1.800439715,10.85291672
100.356134,-0.960074902,-2.188300371,13.58948898
100.406134,0.18435353,-1.620874524,8.576030731
100.456134,0.565031588,-0.246602774,7.182605267
100.506134,-0.383072257,-0.395043284,9.986215591
100.556134,-0.02873042,0.883460403,7.742848396
100.606134,0.019153614,1.043871999,5.664681435
100.656134,-0.081402861,0.620098233,6.737283707
100.706134,-0.234631762,1.118092179,10.64701462
100.756134,-0.019153614,1.678335428,12.27746677
100.806134,0.098162271,0.735019922,12.92150688
100.856134,-0.756567717,2.315192938,10.98699188
100.906134,-0.588973641,-1.750161409,13.43865395
100.956134,-1.403002143,-1.158793569,8.492233276
101.006134,-0.857124209,0.01436521,6.746860504
101.056134,0.011971008,0.009576807,9.600749016
101.106134,-0.196324542,0.696712673,7.891288757
101.156134,0,0.981622696,5.980715752
101.206134,-0.328005642,1.031900883,7.256825447
101.256134,-0.246602774,0.883460403,11.42513084
101.306134,-0.270544797,1.628057122,12.20803452
101.356134,-0.701501072,1.130063176,13.01248646
101.406134,-0.270544797,1.699883223,11.64779091
101.456134,-0.916979253,-1.582567334,13.09628296
101.506134,0.079008654,-1.776497602,10.0412817
101.556134,-0.129286885,0.428562105,7.048529625
101.606134,-1.070208192,0.426167905,8.693346024
101.656134,-0.258573771,0.679953277,7.161057472
101.706134,0.277727395,0.739808321,5.647922039
101.756134,0.045489833,0.727837324,7.666234016
101.806134,0.395043284,1.537077546,11.37724686
101.856134,-0.16759412,1.446097851,12.41633034
101.906134,0.478840351,1.285686255,13.26627159
101.956134,-1.027112484,1.699883223,11.01093388
102.006134,-0.682347477,-2.664746523,14.34366226
102.056134,-1.240196466,-0.44532153,7.407660007
102.106134,-0.644040287,-0.04309563,7.618350029
102.156134,-0.021547815,0.1316811,8.904036522
102.206134,-0.069431849,0.739808321,7.199364662
102.256134,-0.08379706,0.696712673,6.387730122
102.306134,-0.469263524,0.909796655,8.128314972
102.356134,-0.10295067,1.26653266,10.59673691
102.406134,-0.44771573,1.144428372,12.23437023
102.456134,-0.735019922,1.063025594,12.50730991
102.506134,-0.986411095,1.82198751,10.99656868
102.556134,-0.550666392,-1.529894829,13.5368166
102.606134,0.849941611,-1.551442742,10.42435455
102.656134,0.864306808,0.059855044,7.24724865
102.706134,-0.610521436,-0.126892686,8.858546257
102.756134,-0.095768064,0.651222885,7.180211067
102.806134,0.10295067,0.986411095,5.499481201
102.856134,-0.169988319,0.689530075,7.213729858
102.906134,-0.466869324,0.885854602,10.35731697
102.956134,0.227449164,1.572990537,12.00452709
103.006134,-0.268150598,1.386242747,12.24394703
103.056134,0.019153614,1.853112102,11.77707863
103.106134,0.050278235,-2.995146275,15.81130791
103.156134,-0.754173517,0.316034615,7.326257229
103.206134,-0.897825658,0.435744703,6.87614727
103.256134,-0.201112941,-0.924161851,9.567230225
103.306134,0.064643443,0.548272193,7.544129372
103.356134,0.031124622,1.604115129,5.698200226
103.406134,-0.459686726,0.81881696,8.485051155
103.456134,-0.244208574,1.661576033,11.14740276
103.506134,-0.833182216,0.845153213,12.13142014
103.556134,-0.591367841,1.800439715,13.01009178
103.606134,-0.658405483,1.41018486,11.95424938
103.656134,0.433350503,-1.446097851,13.73314095
103.706134,0.124498487,-0.727837324,7.800309181
103.756134,-0.150834709,0.260968,6.519411087
103.806134,-0.852335811,0.04309563,7.931990147
103.856134,0.253785372,1.010353088,6.696582317
103.906134,0.629675031,1.41257906,5.846640587
103.956134,0.292092621,0.864306808,9.457097054
104.006134,-0.320823014,1.532289028,11.29105568
104.056134,-0.062249243,1.283292055,12.39478207
104.106134,-0.110133275,1.259350061,11.75792408
104.156134,-1.012747288,1.958456993,11.53286934
104.206134,-0.347159237,-3.05021286,15.64610767
104.256134,-0.869095206,0.318428814,6.727706909
104.306134,-1.070208192,-0.282515794,7.606379032
104.356134,-0.181959331,-0.234631762,9.572018623
104.406134,0.239420176,1.108515382,6.72531271
104.456134,0.222660765,1.197100878,6.64869833
104.506134,-0.476446152,1.280897856,8.604761124
104.556134,-0.301669419,1.59693253,10.47942066
104.606134,-0.002394202,0.849941611,12.06677628
104.656134,-0.521935999,1.695094824,11.27908421
104.706134,0.165199921,1.719036818,12.24873543
104.756134,-0.287304193,-2.573766708,15.42105293
104.806134,0.426167905,-0.93134445,7.836222172
104.856134,0.126892686,0.155623108,7.194576263
104.906134,-0.694318473,-0.392649084,9.124302864
104.956134,-0.160411507,0.682347477,6.72531271
105.006134,0.1316811,0.816422761,6.31590414
105.056134,0.08379706,0.689530075,8.429984093
105.106134,0.505176544,1.074996591,10.85052204
105.156134,0.100556471,1.233013868,11.63342571
105.206134,0.220266551,0.821211159,11.46822643
105.256134,-0.423773706,1.323993564,11.11149025
105.306134,-0.536301196,-2.348711967,14.63096619
105.356134,-1.347935557,-0.263362199,8.149862289
105.406134,-0.888248801,-0.390254885,7.572859764
105.456134,-0.021547815,-0.895431459,9.126696587
105.506134,0.074220255,0.272938997,6.87614727
105.556134,-0.064643443,0.598550439,6.447585106
105.606134,-0.404620081,0.450109929,8.492233276
105.656134,0.150834709,1.235408068,10.86728191
105.706134,-0.74220252,0.900219858,12.74672985
105.756134,-0.861912608,0.40940848,12.12663174
105.806134,-0.440533102,1.108515382,11.12585545
105.856134,-0.847547412,-0.20590134,10.81221485
105.906134,0.792480767,-2.815581083,10.56082344
105.956134,0.248996973,-0.679953277,8.544905663
106.006134,-0.816422761,0.119710088,8.702922821
106.056134,-0.385466486,1.26653266,8.197746277
106.106134,-0.181959331,0.926556051,6.4715271
106.156134,-0.217872351,0.536301196,8.159439087
106.206134,-0.433350503,1.209071875,9.205705643
106.256134,-0.497993946,0.399831682,12.658144
106.306134,-0.44532153,0.129286885,12.90235329
106.356134,-1.391031146,1.493981838,11.07078838
106.406134,-0.644040287,-1.817199111,12.09790134
106.456134,-1.213860273,-1.41018486,7.948749542
106.506134,-0.282515794,-0.402225882,7.721300602
106.556134,-0.222660765,-0.220266551,9.686940193
106.606134,-0.687135875,0.387860686,8.264783859
106.656134,-0.378283858,-0.021547815,7.682993412
106.706134,-0.347159237,0.387860686,7.572859764
106.756134,-0.442927301,0.411802679,10.16578007
106.806134,-0.306457818,0.277727395,11.8967886
106.856134,-1.386242747,0.392649084,11.45146656
106.906134,-0.428562105,0.306457818,11.96382618
106.956134,-0.265756398,-1.625662923,12.86165142
107.006134,0.44532153,-2.020706177,10.24239445
107.056134,-0.098162271,-0.294486821,8.226476669
107.106134,-1.043871999,-0.260968,8.331821442
107.156134,-0.342370838,0.37110126,7.395689011
107.206134,0.141257897,0.495599747,6.64869833
107.256134,0.438138902,0.435744703,8.379706383
107.306134,-0.258573771,1.00556469,10.88643551
107.356134,-0.44532153,0.320823014,11.51850414
107.406134,-0.18674773,0.395043284,11.72201157
107.456134,-1.276109457,1.680729628,11.89918232
107.506134,-1.00317049,-2.106897593,12.56237602
107.556134,-1.544260144,-0.981622696,8.633491516
107.606134,-0.794874966,-0.900219858,8.183381081
107.656134,-0.282515794,-0.363918662,8.916007042
107.706134,-0.696712673,0.397437483,7.098807812
107.756134,0.050278235,0.660799682,7.144298077
107.806134,-0.737414122,0.146046311,8.999804497
107.856134,-0.375889659,1.034295082,9.294290543
107.906134,-0.93134445,-0.385466486,12.17212105
107.956134,-0.976834297,1.577778935,11.49456215
108.006134,-0.979228497,-1.393425345,13.68286228
108.056134,0.14844051,-2.365471363,13.56554699
108.106134,0.081402861,-1.103726983,8.094796181
108.156134,-0.574608386,-0.646434486,8.717288017
108.206134,-0.732625723,-0.225054964,8.334216118
108.256134,-0.201112941,0.651222885,6.533776283
108.306134,-0.225054964,0.337582439,7.024587631
108.356134,-0.246602774,0.201112941,9.236829758
108.406134,0.052672438,0.81881696,10.40759468
108.456134,0.129286885,0.169988319,12.21521664
108.506134,-0.509964943,1.45088625,11.54005241
108.556134,-0.723048925,-0.172382519,12.74912453
108.606134,-0.859518409,-1.359906554,10.66856289
108.656134,-1.482010841,-0.289698392,6.710947514
108.706134,-0.794874966,-0.93134445,8.221688271
108.756134,0.071826048,-0.16759412,8.336610794
108.806134,0.064643443,0.691924274,6.739677906
108.856134,-0.390254885,0.392649084,7.972691536
108.906134,-0.567425787,0.44532153,10.3501339
108.956134,-0.241814375,1.058237195,10.83136845
109.006134,-0.691924274,0.086191259,12.44027233
109.056134,-0.497993946,1.711854219,10.43393135
109.106134,-1.288080573,-0.471657723,12.75151825
109.156134,-0.169988319,-1.455674648,12.30859089
109.206134,0.086191259,-0.869095206,8.161833763
109.256134,-0.691924274,-0.363918662,8.846575737
109.306134,-0.687135875,-0.100556471,8.360552788
109.356134,-0.143652096,0.907402456,5.750872612
109.406134,-0.196324542,0.538695395,6.737283707
109.456134,-0.165199921,0.213083953,10.28549004
109.506134,-0.02873042,1.587355733,10.6398325
109.556134,0.464475125,0.363918662,12.81855583
109.606134,-0.715866327,0.93134445,11.55920601
109.656134,-0.198718742,0.600944638,12.28704357
109.706134,-0.773327172,-1.194706678,10.7140522
109.756134,-1.082179189,-0.361524463,8.432378769
109.806134,-0.464475125,-0.497993946,8.714894295
109.856134,-0.452504128,0.086191259,8.269572258
109.906134,-0.292092621,0.859518409,6.653486729
109.956134,-0.548272193,0.529118598,8.104372978
110.006134,-0.658405483,0.543483794,9.397241592
110.056134,-0.098162271,1.611297727,10.77630138
110.106134,-0.59376204,0.14844051,12.74194145
110.156134,-0.837970614,1.723825216,10.45787334
110.206134,-1.278503656,-0.138863698,11.39879417
110.256134,0.387860686,-2.025494576,14.16649151
110.306134,0.392649084,-0.433350503,7.948749542
110.356134,-0.48362875,-0.277727395,8.384494781
110.406134,-0.509964943,0.208295554,7.934384346
110.456134,-0.210689753,1.017535686,5.94719696
110.506134,-0.057460841,0.658405483,7.278373241
110.556134,-0.134075299,0.486022949,9.414001465
110.606134,0.055066638,1.039083481,11.18331623
110.656134,-0.308852017,0.732625723,11.64060879
110.706134,-0.696712673,1.165976286,11.40358257
110.756134,-0.679953277,-0.244208574,12.91671848
110.806134,-1.000776291,-1.845929503,11.87524033
110.856134,-1.175553083,-0.20590134,6.730101109
110.906134,-0.644040287,-0.63446343,8.712499619
110.956134,-0.253785372,-0.402225882,8.607154846
111.006134,-0.081402861,0.785298169,6.665457726
111.056134,-0.093373865,0.536301196,7.505822182
111.106134,-0.474051923,0.598550439,9.689333916
111.156134,-0.44532153,1.304839969,10.60870743
111.206134,-0.565031588,0.356736064,12.09550667
111.256134,-0.541089594,0.825999558,11.93270111
111.306134,0.134075299,0.799663365,11.65976238
111.356134,-0.356736064,-1.357512355,11.78665543
111.406134,0.627280831,-1.213860273,8.28633213
111.456134,-0.155623108,-0.459686726,8.801085472
111.506134,-1.022324085,-0.749385119,10.71644688
111.556134,-0.248996973,0.9648633,7.007828236
111.606134,0.059855044,0.900219858,5.750872612
111.656134,0.086191259,0.189141929,8.372523308
111.706134,0.193930343,1.493981838,9.677363396
111.756134,0.138863698,0.763750315,12.05959415
111.806134,-0.244208574,0.909796655,12.16972733
111.856134,-0.847547412,1.707065821,10.9055891
111.906134,-0.497993946,-2.659958124,14.61899567
111.956134,-1.434126854,-0.304063618,7.826645374
112.006134,-0.998382092,-0.375889659,7.706935406
112.056134,-0.270544797,-0.677559078,9.440337181
112.106134,-0.251391172,0.430956304,7.620744228
112.156134,-0.213083953,0.746990919,7.302315235
112.206134,-0.474051923,0.59615624,9.095572472
112.256134,-0.454898328,0.900219858,10.12507915
112.306134,-0.395043284,0.584185243,11.11149025
112.356134,-0.93134445,0.775721371,11.13543224
112.406134,-0.339976639,1.051054597,10.88643551
112.456134,-0.347159237,-1.642422318,14.10903072
112.506134,0.517147541,-1.007958889,9.63666153
112.556134,0.16759412,-0.51954174,8.628703117
112.606134,-0.835576415,-0.497993946,9.042900085
112.656134,-0.265756398,0.821211159,7.050923824
112.706134,0.093373865,0.565031588,7.10359621
112.756134,0.055066638,0.368707061,8.420407295
112.806134,-0.04070143,1.079784989,9.825803757
112.856134,-0.011971008,0.952892304,11.34133339
112.906134,0.052672438,0.581790984,11.66215611
112.956134,-0.699106872,1.498770237,10.44350815
113.006134,-0.086191259,-2.609679937,14.83926201
113.056134,-1.053448796,-0.189141929,8.355764389
113.106134,-1.15400517,-0.004788403,7.795520782
113.156134,-0.160411507,-0.548272193,9.30386734
113.206134,-0.038307227,0.181959331,7.788338184
113.256134,-0.37349546,0.804451764,6.7636199
113.306134,-0.414196909,0.325611442,8.556877136
113.356134,-0.828393817,0.85473001,10.34295177
113.406134,-0.550666392,0.933738649,11.60469532
113.456134,-0.675164878,0.428562105,11.85848141
113.506134,-0.459686726,1.948880196,10.07480049
113.556134,-0.89064306,-0.739808321,13.2279644
113.606134,0.093373865,-1.510741234,11.47301483
113.656134,0.272938997,-0.481234551,7.908048153
113.706134,-0.847547412,-0.201112941,8.81066227
113.756134,-0.225054964,0.292092621,8.42759037
113.806134,-0.354341865,0.871489406,6.002263546
113.856134,-0.146046311,0.70628953,6.907271862
113.906134,-0.342370838,0.660799682,9.162610054
113.956134,-0.052672438,1.443703651,10.57758331
114.006134,0.318428814,0.658405483,12.78743172
114.056134,-0.071826048,1.601720929,12.21282291
114.106134,-0.876277804,-0.464475125,12.952631
114.156134,-0.397437483,-0.993593693,10.66856289
114.206134,-1.343147159,-0.019153614,7.24724865
114.256134,-1.192312479,-0.287304193,8.32463932
114.306134,0.052672438,-0.471657723,9.323021889
114.356134,-0.158017308,0.756567717,7.630321026
114.406134,-0.304063618,0.837970614,7.098807812
114.456134,-0.598550439,0.555454791,9.165003777
114.506134,-0.51954174,1.321599364,10.53688145
114.556134,-0.438138902,0.48362875,11.73158836
114.606134,-0.713472128,0.849941611,11.46343803
114.656134,-0.51954174,1.134851575,10.9893856
114.706134,-0.383072257,-1.218648672,13.25669479
114.756134,0.299275219,-1.139639974,9.196128845
114.806134,0.347159237,0.639251828,7.946355343
114.856134,-1.046266198,-0.806845963,10.11550236
114.906134,-0.723048925,0.505176544,7.910442352
114.956134,-0.045489833,1.034295082,5.882553577
115.006134,0.268150598,0.766144514,7.328651428
115.056134,-0.011971008,0.751779318,9.770736694
115.106134,0.299275219,1.594538331,10.88404083
115.156134,0.112527482,1.053448796,12.29422569
115.206134,-0.627280831,2.042253971,11.45864964
115.256134,-0.16759412,-0.129286885,12.98375607
115.306134,-0.988805294,-1.295263171,10.06282997
115.356134,-1.462857246,0.134075299,6.521805286
115.406134,-0.495599747,-0.301669419,9.105149269
115.456134,0.011971008,-0.074220255,9.385271072
115.506134,-0.01436521,0.981622696,6.323086739
115.556134,-0.031124622,0.462080926,7.642292023
115.606134,-0.600944638,0.51954174,10.02931118
115.656134,-0.536301196,1.41018486,10.20648193
115.706134,-0.588973641,0.311246216,12.5695591
115.756134,-0.533906996,1.261744261,11.46104336
115.806134,-0.383072257,0.936132848,11.21683502
115.856134,-0.256179571,-1.778891921,13.37640476
115.906134,0.399831682,-0.950498104,9.239224434
115.956134,-0.299275219,0.531512797,7.788338184
116.006134,-0.873883605,-0.493205547,9.301473618
116.056134,-0.045489833,0.600944638,7.036558628
116.106134,0.086191259,0.811634362,6.289567947
116.156134,-0.090979666,0.603338838,7.922413349
116.206134,-0.213083953,1.199495077,9.87608242
116.256134,0.064643443,0.938527048,12.25831223
116.306134,-0.08379706,0.701501072,12.21042824
116.356134,-0.775721371,1.915361404,10.78108978
116.406134,-0.548272193,-1.362300754,13.43865395
116.456134,-0.814028561,-0.799663365,9.500192642
116.506134,-1.438915253,0.038307227,6.969521046
116.556134,-0.653617084,-0.553060591,9.014169693
116.606134,-0.033518825,-0.174776718,8.655038834
116.656134,-0.179565132,0.787692368,6.823474884
116.706134,-0.316034615,0.584185243,7.783549786
116.756134,-0.418985307,0.732625723,9.928754807
116.806134,-0.51954174,1.22822547,10.55124664
116.856134,-0.541089594,0.560243189,12.37562847
116.906134,0.050278235,0.861912608,11.31499767
116.956134,-0.758961916,0.313640416,12.00692177
117.006134,-0.105344877,-0.81881696,12.22958183
117.056134,0.122104287,-0.840364814,8.252813339
117.106134,0.158017308,0.035913024,7.826645374
117.156134,-0.804451764,-0.553060591,9.545681953
117.206134,-0.172382519,0.684741676,7.807491779
117.256134,-0.201112941,0.81881696,6.933608055
117.306134,-0.478840351,0.44532153,8.274360657
117.356134,-0.256179571,1.273715258,9.397241592
117.406134,-0.165199921,0.933738649,11.6118784
117.456134,0.009576807,0.497993946,12.44506073
117.506134,-0.612915635,1.63523972,11.93748951
117.556134,-0.268150598,-0.653617084,12.634202
117.606134,-0.737414122,-1.161187768,9.512163162
117.656134,-0.727837324,-0.01436521,7.335834026
117.706134,-0.10295067,-0.181959331,9.021351814
117.756134,-0.213083953,0.234631762,8.125920296
117.806134,-0.18435353,0.859518409,6.536170483
117.856134,-0.160411507,0.490811348,7.87931776
117.906134,-0.196324542,0.792480767,9.87608242
117.956134,-0.459686726,1.213860273,10.68053341
118.006134,-0.775721371,0.074220255,12.62462521
118.056134,-0.356736064,0.778115571,11.60469532
118.106134,-0.905008256,0.93134445,11.07078838
118.156134,-0.751779318,-0.624886632,11.47540855
118.206134,0.418985307,-1.103726983,9.507374763
118.256134,-0.328005642,0.311246216,8.820239067
118.306134,-1.254561663,0.057460841,9.43315506
118.356134,-0.368707061,0.835576415,7.316680431
118.406134,0.04309563,0.845153213,6.31829834
118.456134,0.100556471,0.708683729,7.225700855
118.506134,0.14844051,1.498770237,9.054870605
118.556134,-0.328005642,1.211466074,11.11867237
118.606134,-0.086191259,0.797269166,12.06917095
118.656134,-0.67037648,0.909796655,11.71482849
118.706134,-1.084573388,-2.647987127,15.05234623
118.756134,-0.567425787,0.588973641,8.51617527
118.806134,-1.936909199,-0.289698392,9.701305389
118.856134,-0.790086567,-0.66798228,9.507374763
118.906134,0.198718742,0.134075299,7.532158375
118.956134,0.095768064,0.883460403,6.358999729
119.006134,-0.239420176,0.59615624,7.673416615
119.056134,-0.541089594,0.737414122,9.464279175
119.106134,-0.541089594,1.656787634,10.44111347
119.156134,-1.024718285,0.845153213,12.07156467
119.206134,-0.718260527,1.642422318,10.77390766
119.256134,-0.919373453,-2.920926094,14.69321537
119.306134,-0.395043284,-0.426167905,11.36048698
119.356134,0.758961916,-0.026336219,8.805873871
119.406134,-0.023942016,-0.323217243,8.142680168
119.456134,-0.708683729,-0.555454791,8.037335396
119.506134,-0.696712673,0.730231524,6.275202751
119.556134,-0.351947635,0.766144514,6.897695065
119.606134,-0.40940848,0.78050977,8.415618896
119.656134,0.031124622,1.00317049,10.46266174
119.706134,-0.462080926,0.909796655,11.82256794
119.756134,-0.622492433,0.9648633,11.97819138
119.806134,-2.164358377,-3.588908434,15.09304714
119.856134,-1.091755986,-0.713472128,11.2934494
119.906134,-1.501164436,-0.347159237,8.913613319
119.956134,-1.869871497,-0.720654726,8.413225174
120.006134,-0.677559078,-1.089361787,7.898471355
120.056134,-0.725443125,0.18435353,6.598419666
120.106134,-1.218648672,0.569819987,7.307103634
120.156134,-1.323993564,0.411802679,9.301473618
120.206134,-1.04147768,1.142034173,9.87608242
120.256134,-0.938527048,1.04147768,11.57117653
120.306134,-0.426167905,0.878672004,12.62223148
120.356134,-0.026336219,1.11569798,10.95586681
120.406134,-1.707065821,-2.427720547,13.36443424
120.456134,-0.14844051,-0.969651699,9.17697525
120.506134,0.459686726,-0.265756398,8.798690796
120.556134,-1.039083481,-0.92895025,9.351752281
120.606134,-0.74459672,0.253785372,7.915230751
120.656134,-0.44532153,0.471657723,6.880935669
120.706134,-0.490811348,0.239420176,7.584830761
120.756134,-0.481234551,0.921767652,7.718906403
120.806134,-0.584185243,0.811634362,10.77151299
120.856134,-0.117315881,0.555454791,12.48336792
120.906134,-0.883460403,0.277727395,12.67729759
120.956134,-1.247379065,1.113303781,12.06438255
