Time (s),Gyroscope x (rad/s),Gyroscope y (rad/s),Gyroscope z (rad/s)
0.045564336,-0.003054326,0.002443461,0
0.08561082,-0.003054326,0.002443461,0
0.13561082,-0.003054326,0.002443461,0
0.18561082,0.001832596,0.00122173,-0.000610865
0.23561082,0.00122173,0.000610865,0.000610865
0.28561082,0.00122173,0.00122173,0
0.33561082,0,0.000610865,-0.00122173
0.38561082,0,0,0
0.43561082,0.00122173,-0.000610865,-0.000610865
0.48561082,0.000610865,-0.000610865,-0.000610865
0.53561082,-0.000610865,0,-0.000610865
0.58561082,0.00122173,0,-0.000610865
0.63561082,0.000610865,0,0.000610865
0.68561082,-0.000610865,0.00122173,0
0.73561082,0.000610865,-0.00122173,0
0.78561082,0.001832596,0.00122173,-0.000610865
0.83561082,0,0.000610865,0.000610865
0.88561082,0.00122173,-0.00122173,0
0.93561082,0,0.000610865,0.000610865
0.98561082,-0.000610865,0.002443461,0
1.03561082,0,0,0
1.08561082,0.00122173,0.001832596,0.000610865
1.13561082,0.00122173,0,-0.000610865
1.18561082,0.000610865,0.00122173,-0.000610865
1.23561082,0.00122173,0.001832596,0
1.28561082,0.001832596,0,-0.00122173
1.33561082,0.002443461,0.000610865,-0.000610865
1.38561082,0.00122173,0,0
1.43561082,0.000610865,-0.000610865,0
1.48561082,0,-0.000610865,0
1.53561082,0.000610865,0.000610865,0
1.58561082,0.001832596,0.00122173,0.000610865
1.63561082,0.001832596,0.001832596,0
1.68561082,-0.000610865,-0.002443461,-0.000610865
1.73561082,0.001832596,0.00122173,-0.000610865
1.78561082,-0.000610865,-0.000610865,-0.000610865
1.83561082,-0.000610865,0.000610865,-0.000610865
1.88561082,-0.000610865,0.000610865,-0.000610865
1.93561082,-0.000610865,-0.00122173,0
1.98561082,0.00122173,0,-0.000610865
2.03561082,0.001832596,-0.000610865,0
2.08561082,0.001832596,-0.000610865,-0.00122173
2.13561082,0.000610865,-0.000610865,-0.000610865
2.18561082,0,0.000610865,0
2.23561082,0,-0.00122173,0
2.28561082,0.000610865,0,-0.00122173
2.33561082,0.00122173,0.00122173,0.000610865
2.38561082,0,0,0
2.43561082,0,-0.000610865,-0.00122173
2.48561082,-0.00122173,0.000610865,0.000610865
2.53561082,0.00122173,-0.00122173,-0.000610865
2.58561082,0,0,0
2.63561082,0.000610865,-0.002443461,0
2.68561082,0.000610865,0.00122173,-0.00122173
2.73561082,0,-0.000610865,-0.00122173
2.78561082,0.000610865,-0.000610865,0.000610865
2.83561082,-0.000610865,0.000610865,0
2.88561082,0,0,0
2.93561082,0.000610865,0.001832596,-0.000610865
2.98561082,-0.00122173,-0.00122173,0
3.03561082,0,0.000610865,-0.000610865
3.08561082,0.000610865,0,0.000610865
3.13561082,0.00122173,0,0.000610865
3.18561082,-0.00122173,0.001832596,-0.000610865
3.23561082,0.000610865,0,-0.000610865
3.28561082,0,-0.00122173,-0.000610865
3.33561082,0,0,0
3.38561082,0,0.000610865,-0.00122173
3.43561082,0.000610865,0.000610865,0.000610865
3.48561082,0.003665192,0.002443461,0
3.53561082,0.002443461,0.00122173,-0.000610865
3.58561082,0,-0.00122173,0
3.63561082,0,0.00122173,-0.000610865
3.68561082,0.001832596,0,-0.000610865
3.73561082,0,-0.00122173,-0.000610865
3.78561082,0.00122173,0,0.000610865
3.83561082,0,0.000610865,-0.000610865
3.88561082,0.000610865,0.001832596,0.000610865
3.93561082,-0.000610865,0.001832596,-0.000610865
3.98561082,0.001832596,-0.000610865,0.000610865
4.03561082,-0.000610865,-0.000610865,-0.000610865
4.08561082,0.00122173,-0.00122173,0
4.13561082,-0.000610865,0,-0.000610865
4.18561082,0,0.001832596,-0.000610865
4.23561082,0.000610865,0.00122173,-0.000610865
4.28561082,-0.00122173,0.00122173,-0.000610865
4.33561082,0.000610865,-0.001832596,0
4.38561082,0.000610865,-0.000610865,0
4.43561082,0,0,0
4.48561082,0,0.00122173,0
4.53561082,-0.000610865,0.001832596,0
4.58561082,0.000610865,0.000610865,0.000610865
4.63561082,0.000610865,-0.001832596,-0.00122173
4.68561082,0.00122173,0.001832596,-0.000610865
4.73561082,-0.001832596,0,-0.000610865
4.78561082,0,0.00122173,-0.000610865
4.83561082,-0.000610865,-0.000610865,0
4.88561082,0,0.000610865,0.00122173
4.93561082,0.000610865,0.002443461,-0.000610865
4.98561082,-0.00122173,0.000610865,0.000610865
5.03561082,-0.000610865,0.000610865,0
5.08561082,-0.000610865,0,-0.000610865
5.13561082,-0.000610865,0.00122173,0
5.18561082,0.000610865,-0.000610865,0
5.23561082,-0.000610865,-0.001832596,0
5.28561082,-0.000610865,-0.000610865,0.000610865
5.33561082,-0.000610865,0,0.000610865
5.38561082,0.00122173,0.000610865,-0.000610865
5.43561082,-0.000610865,0.000610865,0.000610865
5.48561082,-0.000610865,0.00122173,-0.000610865
5.53561082,-0.000610865,-0.00122173,0
5.58561082,-0.000610865,0.00122173,0.000610865
5.63561082,-0.000610865,0.00122173,0.000610865
5.68561082,-0.00122173,0.000610865,0
5.73561082,-0.000610865,-0.000610865,0
5.78561082,-0.000610865,0.00122173,0
5.83561082,0,0.00122173,-0.000610865
5.88561082,-0.000610865,0.002443461,-0.000610865
5.93561082,0.000610865,0.00122173,0.00122173
5.98561082,-0.000610865,0.000610865,-0.000610865
6.03561082,0,0.000610865,-0.000610865
6.08561082,-0.000610865,0,0
6.13561082,-0.001832596,0.00122173,-0.000610865
6.18561082,0,0.00122173,-0.000610865
6.23561082,0.000610865,-0.000610865,0
6.28561082,-0.000610865,0.001832596,-0.000610865
6.33561082,0.000610865,0.000610865,0
6.38561082,0.000610865,0,0
6.43561082,0.002443461,0.000610865,0
6.48561082,-0.000610865,0.000610865,0
6.53561082,-0.00122173,0,0
6.58561082,-0.00122173,0.000610865,0.000610865
6.63561082,-0.00122173,0.000610865,0.000610865
6.68561082,0.00122173,0,-0.000610865
6.73561082,0.000610865,0,0
6.78561082,0.00122173,0,0
6.83561082,-0.00122173,-0.00122173,0
6.88561082,0.00122173,-0.000610865,-0.000610865
6.93561082,0,-0.000610865,-0.000610865
6.98561082,-0.000610865,0.001832596,-0.000610865
7.03561082,0.00122173,0.001832596,0.000610865
7.08561082,0.000610865,0.00122173,-0.000610865
7.13561082,-0.000610865,-0.000610865,0
7.18561082,0,0.00122173,-0.000610865
7.23561082,0.000610865,0,0
7.28561082,0,0.00122173,0
7.33561082,-0.000610865,0,0.000610865
7.38561082,0.000610865,0,-0.000610865
7.43561082,0.00122173,0.001832596,0
7.48561082,0.000610865,0.000610865,-0.000610865
7.53561082,0,0.00122173,0
7.58561082,0,0.000610865,-0.000610865
7.63561082,0.00122173,0.000610865,0
7.68561082,0.00122173,0.001832596,0.000610865
7.73561082,0.00122173,0.00122173,-0.000610865
7.78561082,0.00122173,0,0
7.83561082,0.000610865,-0.001832596,0
7.88561082,0.000610865,0,0.00122173
7.93561082,-0.000610865,0.000610865,0
7.98561082,-0.000610865,0.000610865,0
8.03561082,0.00122173,0,0.000610865
8.08561082,0.001832596,0.001832596,0
8.13561082,0,0.003054326,-0.000610865
8.18561082,-0.000610865,0.00122173,0
8.23561082,0.000610865,0.000610865,0.000610865
8.28561082,-0.00122173,0.002443461,0
8.33561082,0.003054326,0.00122173,0
8.38561082,0.00122173,0,0
8.43561082,-0.000610865,0,0
8.48561082,0.001832596,-0.00122173,0.000610865
8.53561082,0.00122173,0,-0.000610865
8.58561082,0.000610865,0.000610865,-0.000610865
8.63561082,0.001832596,-0.00122173,0.000610865
8.68561082,0.00122173,0,0
8.73561082,0.00122173,0.00122173,-0.000610865
8.78561082,0.001832596,0.000610865,0
8.83561082,0.000610865,0.000610865,0
8.88561082,0.000610865,0,-0.00122173
8.93561082,0,-0.00122173,-0.000610865
8.98561082,-0.00122173,0,0
9.03561082,-0.000610865,0.000610865,0
9.08561082,0,0,0
9.13561082,-0.000610865,0.000610865,0.000610865
9.18561082,0.001832596,-0.00122173,-0.000610865
9.23561082,0,0,-0.000610865
9.28561082,0.000610865,0,-0.001832596
9.33561082,0.001832596,0,0
9.38561082,0,0.000610865,0
9.43561082,0,0.000610865,0
9.48561082,0,0.000610865,0
9.53561082,-0.00122173,-0.000610865,-0.000610865
9.58561082,0.00122173,0.000610865,0
9.63561082,-0.00122173,-0.000610865,0.000610865
9.68561082,-0.001832596,-0.001832596,0
9.73561082,0,0,0.000610865
9.78561082,-0.002443461,0,-0.00122173
9.83561082,-0.001832596,0.00122173,0
9.88561082,-0.00122173,-0.000610865,-0.000610865
9.93561082,-0.00122173,0,-0.000610865
9.98561082,0.000610865,0,0
10.03561082,0,0.000610865,-0.000610865
10.08561082,0,0,0.000610865
10.13561082,0,0.00122173,0.000610865
10.18561082,0,-0.000610865,0
10.23561082,0,0.00122173,0
10.28561082,-0.000610865,0,-0.00122173
10.33561082,0.00122173,0.000610865,-0.000610865
10.38561082,-0.00122173,0,0.000610865
10.43561082,0,0.000610865,0
10.48561082,0,0.00122173,0.000610865
10.53561082,0.000610865,0,0
10.58561082,0,0.001832596,-0.000610865
10.63561082,0.00122173,0,0
10.68561082,0.000610865,-0.000610865,-0.000610865
10.73561082,0.00122173,0,0.000610865
10.78561082,-0.000610865,-0.001832596,-0.000610865
10.83561082,-0.000610865,0.001832596,0
10.88561082,-0.000610865,0.00122173,-0.000610865
10.93561082,0,0.000610865,0
10.98561082,0.000610865,0.001832596,-0.000610865
11.03561082,0,0,0
11.08561082,0.00122173,0.000610865,0.000610865
11.13561082,-0.000610865,0,-0.000610865
11.18561082,0,-0.000610865,0
11.23561082,-0.000610865,0.001832596,0.000610865
11.28561082,-0.00122173,0.000610865,-0.000610865
11.33561082,0.000610865,-0.000610865,-0.000610865
11.38561082,0.000610865,-0.000610865,0
11.43561082,0,0,0
11.48561082,0,0.002443461,0
11.53561082,0.001832596,-0.000610865,0
11.58561082,0.000610865,0,0
11.63561082,-0.002443461,0.000610865,0.000610865
11.68561082,-0.00122173,0,-0.000610865
11.73561082,0,-0.000610865,0.000610865
11.78561082,-0.00122173,0.001832596,0
11.83561082,-0.002443461,0.000610865,0.000610865
11.88561082,0.000610865,0.000610865,-0.000610865
11.93561082,-0.000610865,0,-0.000610865
11.98561082,-0.00122173,0.000610865,0
12.03561082,0,0.000610865,-0.000610865
12.08561082,-0.00122173,0.000610865,0
12.13561082,0.001832596,0,-0.00122173
12.18561082,-0.000610865,0.00122173,0
12.23561082,-0.000610865,0.00122173,-0.000610865
12.28561082,0.00122173,0,0
12.33561082,-0.00122173,0.000610865,0
12.38561082,-0.000610865,0,0.000610865
12.43561082,-0.000610865,-0.000610865,0.000610865
12.48561082,0.002443461,0.000610865,0
12.53561082,-0.000610865,0,0
12.58561082,0.00122173,0,0
12.63561082,0,0.002443461,0
12.68561082,-0.000610865,0,0.000610865
12.73561082,0,0.00122173,0.000610865
12.78561082,0.00122173,0.001832596,-0.000610865
12.83561082,0.001832596,-0.000610865,0.00122173
12.88561082,-0.00122173,0,0
12.93561082,0,0,0
12.98561082,0.000610865,0.000610865,-0.00122173
13.03561082,0.00122173,0.000610865,0
13.08561082,0,0.000610865,-0.000610865
13.13561082,0.00122173,0,0.000610865
13.18561082,0,0,-0.000610865
13.23561082,0.00122173,0.000610865,0.000610865
13.28561082,0.001832596,-0.000610865,0
13.33561082,0.000610865,-0.000610865,0.000610865
13.38561082,0.001832596,0.000610865,0
13.43561082,0,0,0.000610865
13.48561082,0.00122173,0,-0.00122173
13.53561082,0,0.001832596,-0.000610865
13.58561082,0.001832596,0,-0.000610865
13.63561082,0,0.000610865,0
13.68561082,0.000610865,0.000610865,0
13.73561082,0.002443461,-0.000610865,0.000610865
13.78561082,0.001832596,0,0
13.83561082,0,-0.00122173,0.000610865
13.88561082,0.00122173,0,-0.000610865
13.93561082,0,0,0.000610865
13.98561082,-0.000610865,0.000610865,0.000610865
14.03561082,0.000610865,-0.000610865,0
14.08561082,0.00122173,0.000610865,0.000610865
14.13561082,0.000610865,0,-0.000610865
14.18561082,-0.001832596,-0.000610865,-0.000610865
14.23561082,-0.000610865,-0.00122173,0.00122173
14.28561082,0,0.000610865,0
14.33561082,0,-0.00122173,0
14.38561082,0.001832596,0.001832596,0.000610865
14.43561082,0.000610865,0,-0.00122173
14.48561082,0,-0.000610865,0
14.53561082,0,0.000610865,0
14.58561082,-0.001832596,0.000610865,-0.000610865
14.63561082,0.000610865,-0.00122173,0.00122173
14.68561082,-0.00122173,0.00122173,-0.000610865
14.73561082,-0.000610865,0.000610865,-0.000610865
14.78561082,-0.000610865,-0.00122173,0.000610865
14.83561082,-0.00122173,-0.000610865,-0.000610865
14.88561082,0.000610865,0.000610865,0.000610865
14.93561082,0.001832596,0,-0.000610865
14.98561082,0,0.000610865,0.000610865
15.03561082,-0.000610865,0.000610865,0.000610865
15.08561082,0,0,-0.000610865
15.13561082,0.000610865,-0.000610865,0.000610865
15.18561082,-0.00122173,-0.00122173,-0.000610865
15.23561082,0.00122173,0.00122173,0
15.28561082,-0.000610865,0,0.000610865
15.33561082,0.000610865,0,0
15.38561082,0,0.000610865,0.000610865
15.43561082,-0.00122173,0.000610865,0.000610865
15.48561082,-0.000610865,-0.00122173,0
15.53561082,-0.000610865,0.000610865,0.00122173
15.58561082,0.00122173,0.000610865,0
15.63561082,-0.00122173,0.001832596,-0.00122173
15.68561082,0.001832596,-0.00122173,0
15.73561082,0.000610865,-0.000610865,-0.000610865
15.78561082,0,0.00122173,0
15.83561082,0.001832596,-0.000610865,0.00122173
15.88561082,0.00122173,-0.00122173,0
15.93561082,0,0,0
15.98561082,0,0,0
16.03561082,-0.000610865,0.001832596,0
16.08561082,0.000610865,0.000610865,0
16.13561082,-0.000610865,0,0
16.18561082,0.000610865,0.000610865,0
16.23561082,0.003054326,0.000610865,0
16.28561082,0.000610865,-0.000610865,0.000610865
16.33561082,0.000610865,0.000610865,-0.00122173
16.38561082,-0.000610865,0.000610865,0.000610865
16.43561082,0.000610865,0.00122173,0
16.48561082,0,0.000610865,0
16.53561082,0,0.001832596,-0.000610865
16.58561082,0.00122173,0.00122173,-0.000610865
16.63561082,0,0.00122173,0
16.68561082,0,0.00122173,0
16.73561082,-0.000610865,0,0.000610865
16.78561082,0.000610865,0,-0.000610865
16.83561082,-0.000610865,0.000610865,0.000610865
16.88561082,-0.000610865,-0.000610865,-0.000610865
16.93561082,0.000610865,0.000610865,-0.000610865
16.98561082,0,-0.000610865,0.00122173
17.03561082,0,0.003054326,-0.00122173
17.08561082,0.000610865,0.00122173,0
17.13561082,0.000610865,0.00122173,-0.000610865
17.18561082,0.00122173,-0.000610865,0
17.23561082,-0.00122173,0.000610865,-0.00122173
17.28561082,-0.000610865,0.00122173,0.000610865
17.33561082,0.000610865,0.000610865,-0.000610865
17.38561082,0,-0.000610865,0.000610865
17.43561082,0,-0.00122173,0
17.48561082,-0.001832596,0.001832596,0.000610865
17.53561082,0.000610865,0.00122173,-0.000610865
17.58561082,0.00122173,-0.00122173,0
17.63561082,0,-0.000610865,0
17.68561082,0.00122173,0,-0.000610865
17.73561082,0.001832596,0,0
17.78561082,-0.00122173,-0.000610865,0
17.83561082,0.003054326,0,-0.000610865
17.88561082,0.00122173,0.00122173,0
17.93561082,0,0,0
17.98561082,0.000610865,0.00122173,0.000610865
18.03561082,0.00122173,0.000610865,0.000610865
18.08561082,0.000610865,0,-0.000610865
18.13561082,-0.001832596,0.001832596,0.000610865
18.18561082,0.000610865,0,-0.000610865
18.23561082,0.001832596,0.000610865,-0.00122173
18.28561082,0.001832596,0,0
18.33561082,0.000610865,0.00122173,0.000610865
18.38561082,0,0.000610865,-0.00122173
18.43561082,0.000610865,0.000610865,-0.000610865
18.48561082,0.002443461,-0.002443461,0
18.53561082,0,0,0.000610865
18.58561082,0.000610865,-0.000610865,0.000610865
18.63561082,0.000610865,0.000610865,0
18.68561082,0.00122173,0.000610865,0
18.73561082,0,0.000610865,0
18.78561082,0.002443461,0.000610865,0.000610865
18.83561082,0.000610865,0.00122173,0.000610865
18.88561082,-0.000610865,0.001832596,0.000610865
18.93561082,0,0.000610865,0.000610865
18.98561082,0.001832596,0.001832596,0
19.03561082,-0.000610865,-0.000610865,-0.000610865
19.08561082,0,0.003054326,-0.000610865
19.13561082,-0.000610865,0.00122173,0.000610865
19.18561082,0.000610865,-0.000610865,-0.000610865
19.23561082,0,0,0
19.28561082,0.000610865,0.00122173,0
19.33561082,0.00122173,-0.002443461,-0.000610865
19.38561082,0.000610865,0.000610865,0.000610865
19.43561082,0.00122173,-0.000610865,0
19.48561082,-0.000610865,0.00122173,-0.000610865
19.53561082,-0.000610865,0.000610865,0
19.58561082,0,0.000610865,-0.000610865
19.63561082,0.002443461,0.000610865,0
19.68561082,0.002443461,0.000610865,0
19.73561082,0,0.000610865,-0.000610865
19.78561082,0.001832596,0.000610865,0.000610865
19.83561082,0.000610865,0.000610865,0
19.88561082,0.000610865,0,0.000610865
19.93561082,0.00122173,0.00122173,0.000610865
19.98561082,0.000610865,0.000610865,-0.00122173
20.03561082,-0.000610865,0,0
20.08561082,-0.002443461,0.001832596,-0.000610865
20.13561082,0.00122173,0.00122173,-0.00122173
20.18561082,0.00122173,0.000610865,0
20.23561082,-0.00122173,0,0.000610865
20.28561082,-0.000610865,0.000610865,0
20.33561082,0.000610865,-0.000610865,0.000610865
20.38561082,0,0.00122173,0.000610865
20.43561082,0,0.000610865,0
20.48561082,0.000610865,0.00122173,0
20.53561082,0.000610865,0.000610865,0
20.58561082,0,0,0.00122173
20.63561082,0,-0.001832596,0
20.68561082,-0.002443461,0.001832596,-0.000610865
20.73561082,0,-0.000610865,-0.000610865
20.78561082,-0.00122173,-0.000610865,-0.000610865
20.83561082,-0.000610865,-0.000610865,0.000610865
20.88561082,0,0,0.000610865
20.93561082,0.00122173,0,-0.000610865
20.98561082,0,0,0
21.03561082,0,0,0
21.08561082,0.000610865,0.001832596,0.000610865
21.13561082,0,-0.000610865,-0.000610865
21.18561082,0.000610865,0.00122173,0.000610865
21.23561082,0.002443461,0.00122173,-0.000610865
21.28561082,0,0.000610865,0.000610865
21.33561082,0.001832596,-0.000610865,0
21.38561082,0.00122173,0.000610865,-0.000610865
21.43561082,0.00122173,0.00122173,0
21.48561082,0.000610865,0,-0.000610865
21.53561082,0,0,0
21.58561082,0.00122173,0.000610865,0.000610865
21.63561082,0.00122173,0.00122173,0.000610865
21.68561082,0.001832596,0.001832596,-0.000610865
21.73561082,0.00122173,-0.00122173,0
21.78561082,0.00122173,0.000610865,0.000610865
21.83561082,0,0.000610865,0
21.88561082,0,0.000610865,0
21.93561082,0.001832596,0.000610865,-0.000610865
21.98561082,0.001832596,0,-0.00122173
22.03561082,0,-0.000610865,-0.00122173
22.08561082,0.000610865,-0.001832596,0
22.13561082,0.003054326,0.000610865,0
22.18561082,0.000610865,-0.00122173,-0.000610865
22.23561082,0.002443461,0.00122173,0
22.28561082,0.00122173,0,0
22.33561082,0.000610865,-0.000610865,0
22.38561082,0.00122173,0,0.000610865
22.43561082,0.00122173,0,0
22.48561082,0.00122173,0,-0.000610865
22.53561082,0.000610865,0.000610865,-0.000610865
22.58561082,0.001832596,0.00122173,-0.000610865
22.63561082,0.000610865,0.00122173,-0.000610865
22.68561082,0.000610865,0.00122173,0
22.73561082,0.001832596,0,0
22.78561082,-0.002443461,0,0
22.83561082,-0.000610865,0.00122173,0.000610865
22.88561082,0,-0.000610865,-0.000610865
22.93561082,0,-0.000610865,-0.000610865
22.98561082,-0.001832596,-0.000610865,0
23.03561082,0,0,-0.000610865
23.08561082,0,0.000610865,-0.000610865
23.13561082,0.001832596,0.00122173,0
23.18561082,0.00122173,0.000610865,0.000610865
23.23561082,0,0,0
23.28561082,0,0.00122173,0.000610865
23.33561082,0.00122173,-0.000610865,-0.00122173
23.38561082,0.000610865,-0.00122173,0
23.43561082,-0.00122173,0,0
23.48561082,0.000610865,-0.001832596,-0.000610865
23.53561082,0.000610865,0.00122173,0
23.58561082,0,0.00122173,-0.00122173
23.63561082,0.001832596,0,0.000610865
23.68561082,0.001832596,0.000610865,0
23.73561082,0,0.000610865,0
23.78561082,0.000610865,0.00122173,-0.000610865
23.83561082,0.001832596,0.00122173,0
23.88561082,0.00122173,-0.000610865,-0.000610865
23.93561082,0.00122173,0,-0.00122173
23.98561082,0,-0.000610865,-0.00122173
24.03561082,-0.00122173,0.00122173,0
24.08561082,0,0.000610865,0
24.13561082,0.000610865,0.00122173,0
24.18561082,0,0.000610865,0
24.23561082,0.001832596,-0.000610865,0.000610865
24.28561082,0.00122173,0.000610865,-0.000610865
24.33561082,0.000610865,0,0.000610865
24.38561082,-0.000610865,0.00122173,-0.00122173
24.43561082,-0.00122173,0.000610865,-0.000610865
24.48561082,-0.000610865,0.000610865,-0.000610865
24.53561082,0.000610865,0.000610865,0
24.58561082,0.00122173,0,0
24.63561082,0.000610865,-0.000610865,0
24.68561082,0.00122173,0.000610865,0.000610865
24.73561082,0,-0.000610865,0.00122173
24.78561082,-0.000610865,0.000610865,-0.000610865
24.83561082,0,-0.000610865,-0.000610865
24.88561082,0.000610865,0.00122173,-0.000610865
24.93561082,0.000610865,0,-0.00122173
24.98561082,0,0,0
25.03561082,0.002443461,-0.000610865,-0.00122173
25.08561082,-0.000610865,0.000610865,-0.000610865
25.13561082,0.001832596,-0.000610865,0
25.18561082,0.000610865,0.000610865,0.000610865
25.23561082,-0.001832596,0.000610865,-0.000610865
25.28561082,-0.000610865,0.00122173,0
25.33561082,-0.00122173,0.000610865,-0.000610865
25.38561082,0.00122173,0.00122173,0
25.43561082,0.00122173,0,0
25.48561082,0,-0.001832596,0
25.53561082,-0.000610865,0.000610865,0
25.58561082,0.00122173,0.00122173,-0.000610865
25.63561082,0,0,0
25.68561082,-0.00122173,-0.000610865,0.000610865
25.73561082,-0.000610865,0,0
25.78561082,0,-0.000610865,0
25.83561082,0.001832596,0.00122173,0
25.88561082,0.000610865,-0.00122173,-0.000610865
25.93561082,0.00122173,0.000610865,0.000610865
25.98561082,-0.00122173,0,0
26.03561082,0.000610865,0.00122173,0
26.08561082,0.000610865,0,-0.000610865
26.13561082,-0.000610865,0.000610865,-0.00122173
26.18561082,-0.00122173,-0.000610865,0
26.23561082,0.000610865,0.00122173,-0.000610865
26.28561082,0,-0.000610865,0
26.33561082,0,-0.000610865,0.000610865
26.38561082,-0.000610865,0.000610865,-0.000610865
26.43561082,0.001832596,-0.00122173,-0.00122173
26.48561082,0.000610865,0.00122173,-0.000610865
26.53561082,0.00122173,0.000610865,0
26.58561082,0.00122173,0.000610865,0
26.63561082,0.000610865,0,0
26.68561082,0,0.00122173,0
26.73561082,0,0,-0.000610865
26.78561082,0,0,0.000610865
26.83561082,0.000610865,-0.000610865,0
26.88561082,-0.000610865,0,0.000610865
26.93561082,0.000610865,0.000610865,0.000610865
26.98561082,0.000610865,0.000610865,-0.000610865
27.03561082,0.00122173,0.000610865,0
27.08561082,0.000610865,0.00122173,-0.00122173
27.13561082,-0.000610865,-0.000610865,0.000610865
27.18561082,-0.00122173,0,0.000610865
27.23561082,0.001832596,0.000610865,0
27.28561082,0,0.000610865,0.000610865
27.33561082,-0.000610865,0,-0.000610865
27.38561082,0.000610865,0.000610865,0.000610865
27.43561082,0,0.000610865,0.000610865
27.48561082,-0.001832596,0.00122173,-0.000610865
27.53561082,0.000610865,0,0
27.58561082,0.001832596,0.001832596,0
27.63561082,0,-0.000610865,0
27.68561082,0,-0.00122173,-0.001832596
27.73561082,0.000610865,0.000610865,0.000610865
27.78561082,0,-0.000610865,0.000610865
27.83561082,-0.000610865,0.00122173,0
27.88561082,-0.000610865,0.000610865,-0.000610865
27.93561082,-0.00122173,0.001832596,0.00122173
27.98561082,-0.001832596,0,0.000610865
28.03561082,0.000610865,0.000610865,-0.000610865
28.08561082,0.001832596,-0.000610865,0.000610865
28.13561082,-0.000610865,0.000610865,0.000610865
28.18561082,0,0.000610865,0
28.23561082,-0.00122173,-0.000610865,-0.000610865
28.28561082,0,-0.000610865,0
28.33561082,-0.00122173,-0.000610865,0.000610865
28.38561082,-0.001832596,0.000610865,0.000610865
28.43561082,0.00122173,-0.00122173,0
28.48561082,-0.00122173,0.00122173,0.000610865
28.53561082,0.000610865,0,-0.000610865
28.58561082,-0.000610865,0.000610865,0.000610865
28.63561082,0.000610865,0.00122173,0.00122173
28.68561082,-0.000610865,0.000610865,-0.000610865
28.73561082,0,0,0
28.78561082,-0.00122173,0.000610865,-0.000610865
28.83561082,-0.000610865,0.000610865,-0.00122173
28.88561082,-0.000610865,0,-0.000610865
28.93561082,-0.00122173,0.000610865,0.000610865
28.98561082,0.000610865,0.000610865,0
29.03561082,-0.000610865,-0.000610865,-0.000610865
29.08561082,0.000610865,0.00122173,-0.000610865
29.13561082,-0.00122173,0.000610865,-0.000610865
29.18561082,-0.000610865,0.000610865,0.000610865
29.23561082,0.000610865,-0.000610865,0.000610865
29.28561082,-0.00122173,0.000610865,0
29.33561082,-0.000610865,0.00122173,0.000610865
29.38561082,0.001832596,-0.000610865,0
29.43561082,-0.000610865,0,0
29.48561082,0.001832596,0.00122173,-0.00122173
29.53561082,0.000610865,0.000610865,0
29.58561082,0.00122173,0,-0.000610865
29.63561082,-0.000610865,0,-0.000610865
29.68561082,0.000610865,-0.00122173,-0.000610865
29.73561082,0,-0.00122173,0.000610865
29.78561082,0,0.002443461,-0.000610865
29.83561082,0.001832596,0.000610865,0.00122173
29.88561082,-0.000610865,-0.000610865,0
29.93561082,0.000610865,-0.000610865,0
29.98561082,0,0,-0.00122173
30.03561082,-0.000610865,-0.000610865,0
30.08561082,0,0.00122173,-0.000610865
30.13561082,-0.000610865,0.000610865,-0.000610865
30.18561082,-0.000610865,-0.000610865,-0.000610865
30.23561082,0,0.000610865,0
30.28561082,-0.000610865,0,0
30.33561082,0,0.000610865,0
30.38561082,0,0,0
30.43561082,0,0,-0.00122173
30.48561082,0.000610865,0,0.001832596
30.53561082,0.00122173,-0.001832596,-0.00122173
30.58561082,0,-0.000610865,0.000610865
30.63561082,0,0.000610865,0
30.68561082,0.002443461,0.000610865,-0.000610865
30.73561082,0.002443461,0.000610865,0
30.78561082,0.00122173,0.000610865,0
30.83561082,0,0.000610865,0.00122173
30.88561082,0.001832596,0.00122173,0
30.93561082,0.00122173,0.000610865,0.000610865
30.98561082,0.00122173,0.00122173,0.000610865
31.03561082,0.001832596,0.00122173,0
31.08561082,0.000610865,-0.000610865,0
31.13561082,0,0.000610865,0
31.18561082,0.002443461,0.000610865,0
31.23561082,-0.000610865,0.001832596,0
31.28561082,-0.00122173,0,-0.000610865
31.33561082,0.000610865,-0.00122173,-0.000610865
31.38561082,-0.000610865,0.000610865,-0.000610865
31.43561082,0.001832596,0.000610865,0.000610865
31.48561082,-0.000610865,0,0
31.53561082,0.000610865,-0.000610865,0.000610865
31.58561082,0,-0.000610865,0
31.63561082,-0.000610865,-0.000610865,0
31.68561082,0.000610865,0,-0.00122173
31.73561082,0,0.000610865,-0.000610865
31.78561082,-0.00122173,-0.000610865,0
31.83561082,0.000610865,0.00122173,0
31.88561082,-0.000610865,0.000610865,0
31.93561082,-0.00122173,0.000610865,0.000610865
31.98561082,0.000610865,0,-0.000610865
32.03561082,-0.00122173,0.00122173,-0.000610865
32.08561082,0,0.000610865,0
32.13561082,-0.000610865,0.001832596,0
32.18561082,0.00122173,0,0
32.23561082,0.00122173,0.000610865,0.000610865
32.28561082,0.00122173,0.00122173,0
32.33561082,0.00122173,0.000610865,-0.000610865
32.38561082,0.000610865,0.000610865,0.000610865
32.43561082,-0.00122173,0.000610865,0
32.48561082,0.000610865,0.00122173,-0.00122173
32.53561082,-0.000610865,0.001832596,-0.000610865
32.58561082,0.001832596,0.000610865,-0.00122173
32.63561082,0.000610865,0.00122173,0
32.68561082,0.001832596,-0.00122173,-0.000610865
32.73561082,0.00122173,0.00122173,0.000610865
32.78561082,-0.001832596,0.000610865,-0.000610865
32.83561082,0.001832596,-0.000610865,-0.000610865
32.88561082,0,-0.000610865,0.000610865
32.93561082,-0.000610865,0.001832596,-0.000610865
32.98561082,-0.000610865,0.00122173,0.000610865
33.03561082,-0.000610865,0,-0.000610865
33.08561082,0.000610865,-0.000610865,-0.00122173
33.13561082,0.001832596,0.000610865,-0.00122173
33.18561082,0.000610865,0,-0.000610865
33.23561082,0,0.000610865,0
33.28561082,-0.000610865,-0.000610865,-0.000610865
33.33561082,0,0.00122173,-0.000610865
33.38561082,0.000610865,0,0.000610865
33.43561082,0.000610865,-0.00122173,0
33.48561082,0,-0.000610865,0
33.53561082,-0.000610865,-0.000610865,0
33.58561082,0.00122173,0,0.00122173
33.63561082,0.000610865,0,-0.00122173
33.68561082,-0.000610865,0.000610865,0.000610865
33.73561082,0.000610865,0.000610865,0
33.78561082,0.000610865,0.000610865,0.00122173
33.83561082,0.000610865,0.000610865,-0.000610865
33.88561082,-0.00122173,0.001832596,0.000610865
33.93561082,-0.000610865,0.000610865,0.000610865
33.98561082,0,0,0
34.03561082,0,0,-0.000610865
34.08561082,0,0,-0.000610865
34.13561082,-0.000610865,0.00122173,0
34.18561082,0,0.000610865,0
34.23561082,0,0.000610865,0
34.28561082,0.000610865,0.000610865,0
34.33561082,-0.000610865,-0.000610865,0.00122173
34.38561082,-0.00122173,0.001832596,-0.00122173
34.43561082,0,-0.001832596,0
34.48561082,-0.000610865,0,0
34.53561082,0.00122173,0.001832596,0
34.58561082,0,-0.000610865,-0.000610865
34.63561082,0,0.00122173,0.000610865
34.68561082,0,0.002443461,0.000610865
34.73561082,-0.000610865,0,-0.000610865
34.78561082,0.00122173,-0.000610865,-0.000610865
34.83561082,-0.00122173,-0.000610865,0
34.88561082,0,0.000610865,0
34.93561082,-0.000610865,-0.000610865,0.000610865
34.98561082,0,0,0
35.03561082,0,0.00122173,0
35.08561082,0.000610865,-0.000610865,-0.00122173
35.13561082,-0.000610865,-0.000610865,-0.000610865
35.18561082,0.001832596,0.000610865,0.000610865
35.23561082,0,0.000610865,-0.000610865
35.28561082,0,0,-0.000610865
35.33561082,-0.00122173,0.000610865,0.00122173
35.38561082,0.000610865,0.000610865,-0.00122173
35.43561082,-0.00122173,-0.000610865,0
35.48561082,0.000610865,0.000610865,0
35.53561082,0.000610865,-0.000610865,-0.000610865
35.58561082,0.00122173,0,0
35.63561082,0.00122173,-0.000610865,0
35.68561082,-0.000610865,0.001832596,0
35.73561082,0.000610865,0.001832596,-0.000610865
35.78561082,0.000610865,0.00122173,0
35.83561082,-0.000610865,0.001832596,0
35.88561082,0.001832596,-0.000610865,-0.000610865
35.93561082,0.001832596,0,0.000610865
35.98561082,0.001832596,0,-0.000610865
36.03561082,0.00122173,0.001832596,0.000610865
36.08561082,0,-0.00122173,-0.00122173
36.13561082,-0.000610865,0.00122173,0
36.18561082,-0.000610865,0.000610865,0.000610865
36.23561082,0,0.00122173,0
36.28561082,0,0.000610865,0.000610865
36.33561082,0,0,0
36.38561082,0.000610865,0,-0.000610865
36.43561082,0.00122173,0.000610865,0
36.48561082,-0.00122173,-0.000610865,-0.000610865
36.53561082,-0.000610865,-0.000610865,-0.000610865
36.58561082,0.00122173,-0.000610865,0
36.63561082,-0.000610865,0.000610865,-0.000610865
36.68561082,0.000610865,0,0
36.73561082,0,0.001832596,0.000610865
36.78561082,0.00122173,0,-0.00122173
36.83561082,0.00122173,0.00122173,0
36.88561082,0,0,0.000610865
36.93561082,0,0,-0.000610865
36.98561082,-0.000610865,0,0
37.03561082,0.001832596,0,0
37.08561082,0.00122173,0.001832596,0.00122173
37.13561082,0.000610865,0.000610865,0
37.18561082,-0.000610865,0,0
37.23561082,-0.000610865,-0.00122173,-0.000610865
37.28561082,0.00122173,0.000610865,-0.00122173
37.33561082,-0.000610865,0.00122173,-0.000610865
37.38561082,-0.000610865,0.000610865,0.000610865
37.43561082,0.00122173,0.000610865,0.000610865
37.48561082,0.001832596,0.00122173,0
37.53561082,0.00122173,-0.001832596,0.000610865
37.58561082,0.00122173,0.000610865,-0.000610865
37.63561082,0.000610865,0.00122173,-0.000610865
37.68561082,0.000610865,0.001832596,0
37.73561082,0.000610865,0.00122173,-0.000610865
37.78561082,0.001832596,0,0.000610865
37.83561082,0.001832596,0,-0.000610865
37.88561082,0.00122173,0.000610865,0
37.93561082,0.00122173,0.000610865,0
37.98561082,0.00122173,0.000610865,0
38.03561082,0.000610865,0,-0.000610865
38.08561082,0.001832596,-0.000610865,0
38.13561082,0.00122173,0.000610865,0.000610865
38.18561082,0.001832596,0.00122173,-0.000610865
38.23561082,0.002443461,-0.000610865,0
38.28561082,0.00122173,0.00122173,-0.000610865
38.33561082,-0.000610865,-0.00122173,-0.000610865
38.38561082,0.00122173,0.00122173,0
38.43561082,-0.00122173,0.000610865,0
38.48561082,0.000610865,0,0
38.53561082,0.000610865,-0.000610865,0
38.58561082,0.000610865,0,0
38.63561082,0.001832596,0.00122173,0.000610865
38.68561082,0,-0.00122173,-0.000610865
38.73561082,0.00122173,-0.000610865,-0.00122173
38.78561082,0.00122173,-0.000610865,0
38.83561082,0.00122173,-0.000610865,-0.000610865
38.88561082,0.000610865,0,0
38.93561082,0.001832596,0.00122173,-0.000610865
38.98561082,0,-0.00122173,-0.000610865
39.03561082,-0.00122173,-0.00122173,0
39.08561082,-0.002443461,0.000610865,-0.000610865
39.13561082,0.00122173,0.00122173,0
39.18561082,0,0,0
39.23561082,0,0,-0.00122173
39.28561082,0,0.00122173,0
39.33561082,-0.000610865,0.000610865,0
39.38561082,0.000610865,0,0.00122173
39.43561082,0.00122173,0,0
39.48561082,0.001832596,-0.000610865,0
39.53561082,-0.00122173,0.00122173,0
39.58561082,0.000610865,0.00122173,-0.000610865
39.63561082,0.000610865,0.000610865,0.000610865
39.68561082,-0.000610865,0.000610865,-0.000610865
39.73561082,0.00122173,-0.000610865,-0.000610865
39.78561082,0.00122173,0,-0.000610865
39.83561082,0.00122173,0.00122173,0.00122173
39.88561082,0.000610865,0.00122173,-0.00122173
39.93561082,-0.000610865,0.000610865,-0.00122173
39.98561082,-0.000610865,0.00122173,-0.000610865
40.03561082,-0.00122173,0,0
40.08561082,-0.000610865,0,-0.000610865
40.13561082,0.000610865,0.00122173,0
40.18561082,-0.00122173,0,0
40.23561082,-0.000610865,0.001832596,0
40.28561082,-0.000610865,-0.000610865,-0.000610865
40.33561082,0.00122173,0.00122173,0.000610865
40.38561082,0.000610865,0.000610865,0
40.43561082,-0.00122173,0.000610865,0
40.48561082,0,0.000610865,0
40.53561082,-0.000610865,0.00122173,0
40.58561082,-0.000610865,0,-0.000610865
40.63561082,-0.000610865,0.00122173,0.000610865
40.68561082,-0.00122173,0,0
40.73561082,0,-0.000610865,0
40.78561082,0.000610865,0.000610865,0
40.83561082,0.001832596,0.00122173,0
40.88561082,0,0,-0.000610865
40.93561082,0.00122173,0.00122173,0
40.98561082,0,-0.000610865,0
41.03561082,0.000610865,0,0
41.08561082,0,0.00122173,0
41.13561082,0.00122173,-0.000610865,-0.000610865
41.18561082,0.001832596,0.001832596,0
41.23561082,0.001832596,0.00122173,-0.000610865
41.28561082,0.00122173,0.000610865,0.000610865
41.33561082,0.000610865,-0.000610865,0.000610865
41.38561082,0.00122173,-0.00122173,0.000610865
41.43561082,0.001832596,-0.001832596,-0.000610865
41.48561082,0.000610865,0.000610865,-0.00122173
41.53561082,0,0.000610865,0.000610865
41.58561082,0.001832596,0,0.000610865
41.63561082,0.00122173,0,-0.00122173
41.68561082,0.001832596,0.00122173,-0.000610865
41.73561082,0.000610865,0,0.000610865
41.78561082,0.000610865,0.000610865,0.00122173
41.83561082,0.000610865,-0.001832596,-0.00122173
41.88561082,0.000610865,0.00122173,0
41.93561082,0,0.000610865,0
41.98561082,0,0.00122173,0.00122173
42.03561082,0,0.000610865,0.000610865
42.08561082,0.00122173,-0.000610865,-0.000610865
42.13561082,-0.000610865,-0.000610865,0.000610865
42.18561082,0.00122173,0.000610865,0.000610865
42.23561082,-0.000610865,0.001832596,-0.000610865
42.28561082,0,-0.00122173,-0.000610865
42.33561082,0.000610865,0,-0.00122173
42.38561082,0.001832596,0.000610865,-0.000610865
42.43561082,0,0.00122173,0
42.48561082,0.000610865,0.001832596,-0.000610865
42.53561082,0,-0.00122173,0
42.58561082,0.00122173,-0.00122173,-0.000610865
42.63561082,0.000610865,0,0.000610865
42.68561082,0.00122173,-0.000610865,0.000610865
42.73561082,0,0.00122173,0
42.78561082,0,0.001832596,0.000610865
42.83561082,-0.000610865,0.000610865,-0.000610865
42.88561082,-0.001832596,0,-0.000610865
42.93561082,0.002443461,0,0.000610865
42.98561082,0.001832596,0.00122173,0.001832596
43.03561082,0,0.000610865,0.000610865
43.08561082,0,-0.000610865,-0.000610865
43.13561082,-0.001832596,-0.001832596,-0.000610865
43.18561082,0.000610865,-0.00122173,-0.000610865
43.23561082,0.000610865,0.001832596,0
43.28561082,0,0,-0.00122173
43.33561082,-0.000610865,0.00122173,-0.00122173
43.38561082,-0.000610865,-0.00122173,0
43.43561082,0.000610865,0,-0.000610865
43.48561082,0,0.000610865,0
43.53561082,-0.000610865,0,0
43.58561082,-0.001832596,0.000610865,0.000610865
43.63561082,0.001832596,-0.00122173,0
43.68561082,0.000610865,0.00122173,0
43.73561082,0.000610865,0.00122173,0
43.78561082,0,0,0
43.83561082,0.000610865,0,-0.000610865
43.88561082,0.002443461,0.000610865,0.000610865
43.93561082,-0.001832596,0,0.000610865
43.98561082,0.00122173,0.000610865,-0.000610865
44.03561082,-0.000610865,0.001832596,-0.000610865
44.08561082,0.000610865,0.00122173,0.000610865
44.13561082,-0.000610865,0.00122173,-0.000610865
44.18561082,-0.000610865,-0.000610865,0.000610865
44.23561082,0.00122173,0.001832596,0
44.28561082,-0.00122173,-0.00122173,0
44.33561082,0.00122173,0.001832596,0
44.38561082,0,0.001832596,-0.000610865
44.43561082,0,-0.000610865,-0.00122173
44.48561082,-0.00122173,-0.00122173,-0.000610865
44.53561082,0,0,0
44.58561082,0,0,0
44.63561082,0.00122173,0,0
44.68561082,0.000610865,0,-0.00122173
44.73561082,0.000610865,0.000610865,0
44.78561082,0.00122173,0,-0.000610865
44.83561082,0.00122173,-0.000610865,0
44.88561082,0.000610865,0.00122173,0
44.93561082,0.000610865,-0.000610865,0
44.98561082,0.00122173,0,-0.000610865
45.03561082,0,0.000610865,0.000610865
45.08561082,-0.000610865,0.00122173,0
45.13561082,0.00122173,0,-0.000610865
45.18561082,-0.001832596,0.000610865,-0.000610865
45.23561082,0,0,0
45.28561082,0.000610865,0.000610865,-0.000610865
45.33561082,0.00122173,0,-0.000610865
45.38561082,-0.00122173,0.000610865,-0.000610865
45.43561082,0.000610865,0,0.000610865
45.48561082,-0.002443461,0.001832596,0
45.53561082,0.000610865,0,-0.00122173
45.58561082,0,0.00122173,0
45.63561082,0,0.000610865,-0.000610865
45.68561082,0.000610865,0.001832596,0.000610865
45.73561082,-0.000610865,-0.000610865,0.000610865
45.78561082,-0.00122173,0.000610865,0.000610865
45.83561082,-0.000610865,0,0
45.88561082,-0.00122173,0.001832596,0
45.93561082,0,-0.000610865,0
45.98561082,-0.001832596,-0.000610865,0
46.03561082,-0.000610865,0,-0.000610865
46.08561082,0.003054326,0.000610865,-0.000610865
46.13561082,-0.000610865,0,0
46.18561082,-0.000610865,-0.00122173,0
46.23561082,0,-0.002443461,0.000610865
46.28561082,0,-0.000610865,0.000610865
46.33561082,0.000610865,0.000610865,-0.000610865
46.38561082,0,0.000610865,-0.000610865
46.43561082,0,0,0.00122173
46.48561082,-0.001832596,-0.000610865,-0.00122173
46.53561082,-0.001832596,0,0.000610865
46.58561082,0.000610865,-0.000610865,0.000610865
46.63561082,0.000610865,0.000610865,0.000610865
46.68561082,-0.00122173,0,0.000610865
46.73561082,0.001832596,0,0.000610865
46.78561082,0,0.001832596,0
46.83561082,-0.000610865,-0.000610865,-0.000610865
46.88561082,0.000610865,0,0
46.93561082,-0.000610865,-0.00122173,0.00122173
46.98561082,0.000610865,0,0.000610865
47.03561082,0.00122173,-0.000610865,0
47.08561082,0,0,-0.00122173
47.13561082,-0.00122173,0.000610865,0
47.18561082,0.000610865,0.00122173,-0.00122173
47.23561082,0,0.000610865,0.000610865
47.28561082,-0.000610865,0.001832596,-0.000610865
47.33561082,0,0.00122173,0.000610865
47.38561082,-0.000610865,0.00122173,0.000610865
47.43561082,-0.000610865,-0.00122173,0.000610865
47.48561082,0.000610865,0.000610865,0
47.53561082,0.000610865,0.000610865,-0.000610865
47.58561082,0.000610865,0,-0.000610865
47.63561082,0,-0.000610865,0
47.68561082,0,0.00122173,-0.00122173
47.73561082,-0.00122173,0.000610865,0.00122173
47.78561082,0.000610865,0,0
47.83561082,0.000610865,-0.000610865,0.000610865
47.88561082,0.00122173,0.000610865,-0.000610865
47.93561082,-0.000610865,0,0.000610865
47.98561082,-0.000610865,0,0
48.03561082,0.001832596,0,0
48.08561082,0.001832596,-0.00122173,0
48.13561082,-0.000610865,-0.000610865,0
48.18561082,0.00122173,-0.00122173,0
48.23561082,0.000610865,0.00122173,0
48.28561082,0,0,-0.000610865
48.33561082,0,0.00122173,-0.000610865
48.38561082,0.000610865,0,0.000610865
48.43561082,-0.000610865,0.00122173,-0.000610865
48.48561082,0,-0.000610865,0.000610865
48.53561082,-0.000610865,0,-0.000610865
48.58561082,-0.000610865,0,0.000610865
48.63561082,0,0,0
48.68561082,0.000610865,0,0.000610865
48.73561082,-0.000610865,-0.000610865,-0.000610865
48.78561082,0.000610865,-0.000610865,-0.00122173
48.83561082,0.000610865,0.000610865,-0.000610865
48.88561082,0.000610865,0,-0.00122173
48.93561082,0.00122173,0.00122173,0
48.98561082,0,0,0
49.03561082,0.001832596,0.00122173,0.000610865
49.08561082,0.000610865,0.000610865,-0.00122173
49.13561082,0,0,-0.000610865
49.18561082,-0.000610865,-0.00122173,0.000610865
49.23561082,-0.00122173,-0.000610865,0
49.28561082,0.000610865,0.00122173,0
49.33561082,0.00122173,-0.00122173,-0.000610865
49.38561082,0.000610865,0.000610865,0
49.43561082,0.000610865,-0.000610865,-0.000610865
49.48561082,0,0,0.00122173
49.53561082,0.00122173,0,0
49.58561082,-0.000610865,0.00122173,0
49.63561082,0.000610865,0,0
49.68561082,0.001832596,-0.000610865,-0.000610865
49.73561082,0.001832596,0.000610865,-0.00122173
49.78561082,-0.00122173,0,-0.00122173
49.83561082,0.002443461,0,-0.000610865
49.88561082,-0.00122173,-0.00122173,0
49.93561082,0.00122173,-0.000610865,0
49.98561082,0.000610865,0.00122173,0
50.03561082,-0.00122173,-0.00122173,0
50.08561082,0,0.000610865,0
50.13561082,0,-0.00122173,-0.000610865
50.18561082,-0.000610865,0,-0.00122173
50.23561082,-0.000610865,0.00122173,0
50.28561082,0,0.000610865,0
50.33561082,0.00122173,0.00122173,0
50.38561082,0,0.000610865,0.000610865
50.43561082,-0.000610865,-0.00122173,0.000610865
50.48561082,0.001832596,0.00122173,-0.000610865
50.53561082,0.000610865,0.00122173,-0.000610865
50.58561082,-0.000610865,0.00122173,-0.000610865
50.63561082,-0.000610865,0,0.000610865
50.68561082,0.000610865,0.00122173,-0.000610865
50.73561082,-0.001832596,0.000610865,0
50.78561082,-0.000610865,-0.00122173,0
50.83561082,0.00122173,-0.000610865,0
50.88561082,0.000610865,0.002443461,0
50.93561082,0.00122173,0.000610865,0
50.98561082,0.000610865,0.000610865,0.000610865
51.03561082,0.000610865,0,-0.000610865
51.08561082,0.00122173,0.000610865,-0.00122173
51.13561082,0.000610865,0.00122173,0
51.18561082,0.001832596,0.00122173,0
51.23561082,0,0.001832596,0.000610865
51.28561082,-0.00122173,0.00122173,0
51.33561082,0.002443461,-0.000610865,0.000610865
51.38561082,0.000610865,0.000610865,0
51.43561082,0.00122173,0,-0.000610865
51.48561082,0.00122173,0.001832596,0.000610865
51.53561082,0.001832596,0.00122173,0
51.58561082,0.000610865,0.000610865,-0.000610865
51.63561082,-0.000610865,-0.000610865,0
51.68561082,0,-0.000610865,0.00122173
51.73561082,0,0,-0.000610865
51.78561082,0.000610865,-0.000610865,0.000610865
51.83561082,0.000610865,0,-0.000610865
51.88561082,-0.00122173,-0.000610865,0.000610865
51.93561082,0.003054326,0.002443461,-0.000610865
51.98561082,0.00122173,0,0
52.03561082,0,-0.000610865,-0.00122173
52.08561082,0.000610865,0,0
52.13561082,0.000610865,0.000610865,-0.000610865
52.18561082,0.00122173,0,0.000610865
52.23561082,0,0,-0.000610865
52.28561082,-0.000610865,0,-0.000610865
52.33561082,0.000610865,0.001832596,-0.00122173
52.38561082,0.00122173,0,0
52.43561082,0.00122173,0.002443461,-0.000610865
52.48561082,0,-0.000610865,-0.000610865
52.53561082,0.001832596,-0.000610865,-0.00122173
52.58561082,0.000610865,-0.000610865,-0.000610865
52.63561082,-0.000610865,-0.00122173,-0.000610865
52.68561082,0.000610865,-0.000610865,0
52.73561082,0,0.000610865,0
52.78561082,0,0,0.000610865
52.83561082,0.000610865,0,0
52.88561082,0,0,0.000610865
52.93561082,0.00122173,-0.000610865,0
52.98561082,0,0,0
53.03561082,0.001832596,-0.000610865,0.000610865
53.08561082,0,-0.00122173,0.000610865
53.13561082,0.002443461,0.000610865,0
53.18561082,0.00122173,0.00122173,-0.000610865
53.23561082,0.00122173,-0.000610865,-0.00122173
53.28561082,0.000610865,0.000610865,-0.000610865
53.33561082,-0.000610865,0.00122173,0.000610865
53.38561082,0.001832596,-0.00122173,0.000610865
53.43561082,0.002443461,0.000610865,0.00122173
53.48561082,0.00122173,0.000610865,-0.000610865
53.53561082,0.00122173,0.00122173,0.000610865
53.58561082,-0.000610865,-0.00122173,0
53.63561082,0.001832596,-0.000610865,-0.000610865
53.68561082,0.000610865,0.00122173,0
53.73561082,0.001832596,0.000610865,-0.000610865
53.78561082,0.000610865,0,-0.000610865
53.83561082,0.000610865,0.00122173,0.000610865
53.88561082,0.000610865,0.002443461,0
53.93561082,0,0,0
53.98561082,0.002443461,0.00122173,0
54.03561082,0,0,0
54.08561082,0.00122173,0.00122173,0.000610865
54.13561082,0,0,0
54.18561082,0.000610865,0.000610865,-0.000610865
54.23561082,0,0.000610865,0.00122173
54.28561082,0.000610865,0.000610865,0
54.33561082,-0.00122173,0,0
54.38561082,-0.00122173,0.00122173,-0.000610865
54.43561082,-0.00122173,0,0.000610865
54.48561082,0,0.000610865,0.000610865
54.53561082,0.000610865,0.00122173,0
54.58561082,-0.00122173,-0.000610865,0.000610865
54.63561082,0,0,0
54.68561082,0.000610865,0,-0.00122173
54.73561082,0.00122173,0.00122173,-0.000610865
54.78561082,0.000610865,0.000610865,0.000610865
54.83561082,-0.00122173,0.000610865,0
54.88561082,0,0.000610865,0.00122173
54.93561082,-0.000610865,0.00122173,-0.00122173
54.98561082,0.000610865,0.000610865,0
55.03561082,-0.00122173,-0.000610865,-0.000610865
55.08561082,0.000610865,-0.000610865,0
55.13561082,-0.000610865,-0.000610865,0.000610865
55.18561082,0,0,-0.000610865
55.23561082,0.000610865,0.00122173,0.00122173
55.28561082,0,-0.00122173,0
55.33561082,0.00122173,0,0.000610865
55.38561082,0.001832596,0,0
55.43561082,0.00122173,0.001832596,-0.00122173
55.48561082,0,0.00122173,-0.000610865
55.53561082,0.00122173,0,-0.000610865
55.58561082,0.001832596,-0.000610865,0
55.63561082,-0.000610865,-0.000610865,0
55.68561082,0,-0.000610865,0
55.73561082,-0.000610865,-0.00122173,0.000610865
55.78561082,0.002443461,0.001832596,-0.000610865
55.83561082,0.00122173,0,0.000610865
55.88561082,0.00122173,0.001832596,0
55.93561082,0.003054326,0.000610865,-0.000610865
55.98561082,0.001832596,0,0
56.03561082,-0.000610865,0.000610865,0
56.08561082,0.000610865,0.001832596,0.000610865
56.13561082,-0.000610865,0,0
56.18561082,0,0.000610865,0.000610865
56.23561082,0.00122173,-0.000610865,0
56.28561082,0.000610865,0,-0.000610865
56.33561082,0.000610865,-0.000610865,-0.00122173
56.38561082,-0.000610865,0,0
56.43561082,0,0,-0.000610865
56.48561082,-0.000610865,0,0.000610865
56.53561082,0.000610865,0.000610865,-0.000610865
56.58561082,0,0,-0.00122173
56.63561082,0.000610865,-0.000610865,-0.000610865
56.68561082,0.00122173,0.001832596,0
56.73561082,-0.00122173,-0.000610865,-0.00122173
56.78561082,-0.000610865,0,-0.00122173
56.83561082,0.000610865,0,-0.000610865
56.88561082,-0.000610865,0.001832596,-0.000610865
56.93561082,0.000610865,0.00122173,-0.001832596
56.98561082,0,0.000610865,-0.00122173
57.03561082,0.000610865,0,-0.000610865
57.08561082,0.000610865,0.00122173,-0.000610865
57.13561082,0.000610865,0.001832596,-0.00122173
57.18561082,0,0.000610865,-0.00122173
57.23561082,-0.000610865,0,-0.001832596
57.28561082,-0.000610865,0.00122173,-0.00122173
57.33561082,-0.000610865,0.000610865,0.000610865
57.38561082,0.000610865,0,0
57.43561082,-0.000610865,0,0
57.48561082,0,0.000610865,-0.000610865
57.53561082,0,-0.000610865,0
57.58561082,-0.001832596,0.000610865,0
57.63561082,-0.000610865,-0.00122173,0
57.68561082,-0.000610865,-0.000610865,-0.000610865
57.73561082,-0.00122173,0,0
57.78561082,0,0.00122173,-0.000610865
57.83561082,0.000610865,0.001832596,-0.000610865
57.88561082,-0.000610865,0.00122173,0
57.93561082,0,0.000610865,-0.00122173
57.98561082,0.000610865,-0.000610865,-0.00122173
58.03561082,-0.000610865,0.000610865,-0.00122173
58.08561082,0,-0.000610865,-0.000610865
58.13561082,-0.000610865,0.000610865,0
58.18561082,0.000610865,0.00122173,0
58.23561082,0,0,0
58.28561082,-0.00122173,0.002443461,-0.000610865
58.33561082,-0.000610865,0.00122173,-0.000610865
58.38561082,0.00122173,0,0
58.43561082,-0.00122173,0.00122173,-0.000610865
58.48561082,0.000610865,0.00122173,-0.000610865
58.53561082,0,-0.000610865,-0.000610865
58.58561082,0,0,-0.000610865
58.63561082,0,0.000610865,0
58.68561082,0.000610865,0.000610865,-0.000610865
58.73561082,0,0.00122173,-0.000610865
58.78561082,0,-0.000610865,0
58.83561082,0,0.000610865,0
58.88561082,0,-0.00122173,0
58.93561082,0.000610865,0.001832596,-0.00122173
58.98561082,0.000610865,0,0
59.03561082,0.00122173,0.00122173,0
59.08561082,-0.00122173,0.00122173,0.00122173
59.13561082,0.000610865,0,-0.000610865
59.18561082,-0.00122173,0.000610865,-0.000610865
59.23561082,0.002443461,0,0
59.28561082,0.000610865,0.001832596,0
59.33561082,0,0.000610865,0
59.38561082,0.000610865,0,-0.000610865
59.43561082,-0.00122173,0,-0.000610865
59.48561082,0.000610865,0,0
59.53561082,0.00122173,0.000610865,-0.000610865
59.58561082,0.000610865,0,0
59.63561082,0.00122173,0.000610865,0
59.68561082,-0.000610865,0.000610865,0.00122173
59.73561082,0,0.000610865,0.000610865
59.78561082,0,0,0.00122173
59.83561082,0.00122173,-0.000610865,0
59.88561082,0.000610865,0,-0.000610865
59.93561082,0.000610865,-0.00122173,0
59.98561082,0.000610865,0.00122173,-0.000610865
60.03561082,0.000610865,-0.000610865,-0.000610865
60.08561082,-0.00122173,0.00122173,0
60.13561082,0.00122173,0,0
60.18561082,-0.000610865,0.001832596,0
60.23561082,0.001832596,0.000610865,0
60.28561082,0.000610865,0.00122173,-0.000610865
60.33561082,0,0,-0.000610865
60.38561082,0,0.001832596,0.000610865
60.43561082,-0.000610865,-0.00122173,0.000610865
60.48561082,0.000610865,0.001832596,0
60.53561082,0,0.000610865,0.000610865
60.58561082,-0.00122173,0,0
60.63561082,0.00122173,0.000610865,0
60.68561082,0,0.000610865,0
60.73561082,-0.00122173,0,0.00122173
60.78561082,-0.000610865,0.000610865,0
60.83561082,0.002443461,0,0
60.88561082,-0.000610865,-0.000610865,0.000610865
60.93561082,0.000610865,0.000610865,0.00122173
60.98561082,0.000610865,-0.000610865,0
61.03561082,0.000610865,0.000610865,-0.00122173
61.08561082,0.000610865,0.001832596,0
61.13561082,-0.000610865,0,-0.000610865
61.18561082,-0.000610865,0.000610865,0.000610865
61.23561082,0.00122173,0.00122173,-0.00122173
61.28561082,-0.000610865,0,0.000610865
61.33561082,0,0.000610865,0
61.38561082,-0.001832596,0.001832596,-0.00122173
61.43561082,-0.00122173,-0.000610865,0
61.48561082,-0.00122173,-0.001832596,-0.00122173
61.53561082,0,0,0
61.58561082,0,0.002443461,0.000610865
61.63561082,0.000610865,0.000610865,0
61.68561082,0.000610865,-0.000610865,0
61.73561082,0,0,0
61.78561082,-0.001832596,0.000610865,-0.000610865
61.83561082,0,0,-0.000610865
61.88561082,-0.000610865,0,0
61.93561082,0,0,0
61.98561082,0.00122173,-0.000610865,0
62.03561082,0,0.00122173,0
62.08561082,0,0.00122173,-0.000610865
62.13561082,0.000610865,0.00122173,0
62.18561082,-0.000610865,0,-0.000610865
62.23561082,-0.000610865,0.00122173,0
62.28561082,-0.000610865,0,0
62.33561082,0,0.000610865,0
62.38561082,0.000610865,0.000610865,-0.00122173
62.43561082,-0.000610865,-0.001832596,0
62.48561082,0.000610865,-0.000610865,0.00122173
62.53561082,0,0,-0.000610865
62.58561082,0.001832596,0,-0.000610865
62.63561082,0,0.000610865,0
62.68561082,-0.000610865,0.000610865,0
62.73561082,0.00122173,0,0.000610865
62.78561082,0.00122173,0,-0.00122173
62.83561082,0.000610865,0.000610865,0
62.88561082,0.00122173,0.000610865,-0.00122173
62.93561082,-0.00122173,0.00122173,0.00122173
62.98561082,0.000610865,0.00122173,-0.000610865
63.03561082,0,-0.00122173,0
63.08561082,0.000610865,-0.000610865,-0.000610865
63.13561082,-0.000610865,0.000610865,0.00122173
63.18561082,-0.001832596,0.000610865,-0.00122173
63.23561082,0,0.00122173,-0.000610865
63.28561082,-0.000610865,-0.000610865,0.000610865
63.33561082,0,0.001832596,0
63.38561082,0,0.000610865,0
63.43561082,-0.00122173,-0.00122173,-0.000610865
63.48561082,-0.000610865,0,-0.00122173
63.53561082,0.000610865,0.001832596,0.000610865
63.58561082,-0.00122173,0.000610865,0.000610865
63.63561082,0,0,0.000610865
63.68561082,-0.000610865,-0.00122173,0
63.73561082,-0.001832596,-0.000610865,0
63.78561082,-0.000610865,0,0
63.83561082,-0.00122173,-0.000610865,0
63.88561082,0.000610865,0.000610865,-0.000610865
63.93561082,0.00122173,-0.000610865,0
63.98561082,0.00122173,0,-0.000610865
64.03561082,0.00122173,0.00122173,0
64.08561082,0,0.000610865,-0.000610865
64.13561082,0,-0.000610865,0
64.18561082,0,-0.000610865,0
64.23561082,-0.000610865,0,0
64.28561082,-0.00122173,0.000610865,-0.000610865
64.33561082,0.00122173,0.00122173,0.00122173
64.38561082,0,0,-0.00122173
64.43561082,0.00122173,0.000610865,0
64.48561082,-0.000610865,0.00122173,0
64.53561082,0.00122173,-0.000610865,0.000610865
64.58561082,0,0,0.000610865
64.63561082,0,-0.000610865,0.00122173
64.68561082,-0.002443461,0,0
64.73561082,0.001832596,-0.000610865,0
64.78561082,0.002443461,0.002443461,-0.000610865
64.83561082,0,-0.000610865,0
64.88561082,0.000610865,0.000610865,-0.000610865
64.93561082,0.001832596,0.000610865,0.000610865
64.98561082,0,-0.000610865,0.000610865
65.03561082,-0.000610865,0.000610865,-0.000610865
65.08561082,0.000610865,0,0.000610865
65.13561082,0,0.000610865,0
65.18561082,0.00122173,0,-0.00122173
65.23561082,0,-0.000610865,-0.001832596
65.28561082,-0.00122173,0.00122173,0.000610865
65.33561082,0.000610865,0,0
65.38561082,0,0,-0.000610865
65.43561082,0,0,0
65.48561082,-0.000610865,0.000610865,0
65.53561082,0.000610865,0.000610865,0.000610865
65.58561082,0.00122173,0.00122173,0
65.63561082,-0.000610865,-0.000610865,-0.000610865
65.68561082,0.000610865,-0.000610865,0
65.73561082,0,0.000610865,0
65.78561082,0.000610865,0,-0.000610865
65.83561082,0.000610865,0.000610865,0.000610865
65.88561082,0.003054326,0.001832596,-0.000610865
65.93561082,0.000610865,0.00122173,0
65.98561082,0.00122173,-0.000610865,0
66.03561082,0.00122173,0,0
66.08561082,0,-0.001832596,0.000610865
66.13561082,-0.000610865,0.000610865,0.000610865
66.18561082,0.00122173,0,0.000610865
66.23561082,0.000610865,0,-0.000610865
66.28561082,-0.000610865,-0.000610865,-0.000610865
66.33561082,0.00122173,0.000610865,0
66.38561082,0.000610865,0.003054326,-0.000610865
66.43561082,0.00122173,0.000610865,-0.000610865
66.48561082,0.000610865,0,0.000610865
66.53561082,0.000610865,-0.000610865,-0.000610865
66.58561082,0,0.00122173,0
66.63561082,0.00122173,0.000610865,0
66.68561082,0,0,0
66.73561082,0.00122173,0.000610865,0.000610865
66.78561082,0.001832596,0.00122173,0.000610865
66.83561082,0.001832596,-0.000610865,0
66.88561082,-0.000610865,-0.000610865,0
66.93561082,0,0,-0.000610865
66.98561082,0,0,-0.000610865
67.03561082,0.000610865,0.00122173,0.000610865
67.08561082,0.003054326,0.00122173,0.000610865
67.13561082,0,-0.000610865,0
67.18561082,0,-0.000610865,-0.000610865
67.23561082,0.000610865,-0.000610865,-0.000610865
67.28561082,0.001832596,0.001832596,0
67.33561082,0,0.001832596,0
67.38561082,0,-0.000610865,0
67.43561082,0.00122173,0.000610865,0
67.48561082,0.00122173,0.000610865,0
67.53561082,-0.00122173,-0.000610865,-0.000610865
67.58561082,0.00122173,0.00122173,0.000610865
67.63561082,0.000610865,-0.00122173,-0.000610865
67.68561082,0.000610865,0,-0.000610865
67.73561082,-0.00122173,0.000610865,-0.001832596
67.78561082,0.00122173,0.00122173,0.000610865
67.83561082,0.000610865,0.000610865,0
67.88561082,0.000610865,0.000610865,0
67.93561082,0.00122173,0.000610865,0
67.98561082,0.000610865,-0.000610865,0
68.03561082,0.000610865,0,0.00122173
68.08561082,0,0,0.00122173
68.13561082,0,0.000610865,0
68.18561082,-0.00122173,0.000610865,0
68.23561082,-0.000610865,0.00122173,0
68.28561082,0.000610865,0.001832596,0
68.33561082,0.000610865,0.000610865,0
68.38561082,0.000610865,0.001832596,-0.00122173
68.43561082,0.00122173,-0.002443461,0
68.48561082,0,0.001832596,-0.000610865
68.53561082,-0.001832596,0,-0.000610865
68.58561082,0.000610865,-0.000610865,0
68.63561082,0,0,-0.000610865
68.68561082,0,0.00122173,0.000610865
68.73561082,0.001832596,-0.000610865,0.00122173
68.78561082,0.000610865,0.00122173,0
68.83561082,0,0.001832596,-0.000610865
68.88561082,-0.00122173,-0.00122173,-0.000610865
68.93561082,-0.000610865,0.00122173,-0.000610865
68.98561082,-0.001832596,0.000610865,0.000610865
69.03561082,-0.00122173,0.00122173,0
69.08561082,-0.000610865,-0.000610865,-0.00122173
69.13561082,0.00122173,0.00122173,0
69.18561082,0,0.00122173,0.000610865
69.23561082,0.000610865,0.001832596,-0.001832596
69.28561082,0,0,-0.00122173
69.33561082,-0.000610865,0.001832596,-0.00122173
69.38561082,-0.000610865,0.000610865,-0.000610865
69.43561082,0.00122173,0.00122173,-0.000610865
69.48561082,0,-0.00122173,0
69.53561082,0.00122173,0.000610865,-0.000610865
69.58561082,0.000610865,0,-0.000610865
69.63561082,0,0,-0.000610865
69.68561082,0.00122173,0.002443461,-0.001832596
69.73561082,0.000610865,0.000610865,-0.00122173
69.78561082,-0.000610865,0,-0.000610865
69.83561082,0.00122173,0.00122173,-0.000610865
69.88561082,0,0.00122173,-0.000610865
69.93561082,-0.00122173,0.000610865,-0.00122173
69.98561082,-0.000610865,-0.001832596,0
70.03561082,0,0.000610865,-0.00122173
70.08561082,0.000610865,0,-0.000610865
70.13561082,0,-0.000610865,-0.000610865
70.18561082,0.000610865,0.000610865,-0.000610865
70.23561082,-0.000610865,-0.000610865,-0.00122173
70.28561082,0,0,-0.000610865
70.33561082,-0.001832596,0.000610865,-0.00122173
70.38561082,0.00122173,-0.000610865,0
70.43561082,0,-0.000610865,-0.000610865
70.48561082,-0.001832596,0.000610865,0
70.53561082,0.000610865,-0.000610865,0
70.58561082,0,0.000610865,0
70.63561082,0,0,0.000610865
70.68561082,0,0.00122173,0.000610865
70.73561082,-0.00122173,0.000610865,0
70.78561082,0,-0.00122173,0.000610865
70.83561082,-0.000610865,-0.000610865,0
70.88561082,0,0.000610865,0
70.93561082,-0.000610865,0.001832596,-0.000610865
70.98561082,0,0.000610865,0.000610865
71.03561082,-0.00122173,0,0
71.08561082,0.00122173,0.00122173,0
71.13561082,0.001832596,0.000610865,-0.000610865
71.18561082,-0.00122173,0,-0.000610865
71.23561082,0.001832596,-0.00122173,0
71.28561082,-0.000610865,-0.00122173,0
71.33561082,0,0.000610865,0.000610865
71.38561082,0.00122173,0,-0.00122173
71.43561082,0.000610865,0,0.000610865
71.48561082,0,-0.00122173,0
71.53561082,0,0,0
71.58561082,-0.000610865,0.000610865,0.000610865
71.63561082,0.00122173,0,-0.000610865
71.68561082,0,-0.000610865,0
71.73561082,-0.000610865,0,-0.000610865
71.78561082,0.000610865,0.000610865,0
71.83561082,0.000610865,0.00122173,0
71.88561082,0.000610865,-0.00122173,0
71.93561082,-0.000610865,0.00122173,-0.000610865
71.98561082,-0.000610865,-0.00122173,0
72.03561082,0.000610865,0.000610865,-0.00122173
72.08561082,0.00122173,0,-0.000610865
72.13561082,-0.000610865,0.000610865,-0.000610865
72.18561082,-0.000610865,0,0.000610865
72.23561082,0,0,-0.000610865
72.28561082,0.000610865,-0.000610865,-0.000610865
72.33561082,0.000610865,0.00122173,-0.00122173
72.38561082,0.00122173,0.00122173,-0.000610865
72.43561082,-0.000610865,0.00122173,-0.000610865
72.48561082,0.001832596,0.00122173,-0.000610865
72.53561082,0.00122173,0.000610865,0.000610865
72.58561082,0,0.000610865,-0.000610865
72.63561082,0,0.000610865,0
72.68561082,-0.000610865,0.000610865,0
72.73561082,0.000610865,-0.000610865,0
72.78561082,0.00122173,-0.00122173,0.000610865
72.83561082,0.00122173,-0.000610865,0
72.88561082,0.002443461,0.001832596,0
72.93561082,0.002443461,0,-0.000610865
72.98561082,0.000610865,-0.00122173,0
73.03561082,0.000610865,0.002443461,-0.00122173
73.08561082,0,0.001832596,0
73.13561082,0.000610865,-0.00122173,-0.00122173
73.18561082,0.001832596,0.00122173,0
73.23561082,0.00122173,0,0
73.28561082,-0.000610865,0,-0.00122173
73.33561082,0.000610865,0.00122173,0
73.38561082,0,0.00122173,0
73.43561082,0.000610865,0.000610865,0
73.48561082,0,-0.000610865,0.000610865
73.53561082,0.000610865,0,0
73.58561082,0,-0.000610865,0.000610865
73.63561082,0.00122173,0,0.000610865
73.68561082,0.00122173,0.000610865,0
73.73561082,0.000610865,0.000610865,0
73.78561082,0,0.000610865,0.000610865
73.83561082,0,-0.000610865,-0.000610865
73.88561082,0.00122173,0.000610865,0
73.93561082,0.001832596,0.00122173,0
73.98561082,0.00122173,0,0.000610865
74.03561082,0.00122173,-0.000610865,-0.000610865
74.08561082,-0.002443461,0,0.000610865
74.13561082,0.000610865,0.000610865,0
74.18561082,0.000610865,-0.00122173,0.000610865
74.23561082,-0.000610865,0.000610865,0
74.28561082,-0.00122173,-0.000610865,-0.000610865
74.33561082,-0.000610865,0.000610865,0
74.38561082,-0.000610865,0,0
74.43561082,-0.000610865,0,0
74.48561082,-0.00122173,-0.000610865,-0.000610865
74.53561082,0.000610865,0.00122173,0
74.58561082,-0.00122173,-0.000610865,-0.000610865
74.63561082,-0.00122173,0.00122173,-0.000610865
74.68561082,0.001832596,0,-0.000610865
74.73561082,-0.000610865,0,0.000610865
74.78561082,0.00122173,0.000610865,-0.00122173
74.83561082,0.00122173,0,0.000610865
74.88561082,0,-0.00122173,0
74.93561082,0.000610865,0.00122173,0.000610865
74.98561082,0.000610865,0.000610865,0
75.03561082,0,0,0
75.08561082,0,0.00122173,0
75.13561082,0,-0.000610865,-0.000610865
75.18561082,0.000610865,-0.000610865,-0.000610865
75.23561082,0,0,0
75.28561082,-0.000610865,0,-0.001832596
75.33561082,0.000610865,0.00122173,0
75.38561082,0,-0.001832596,-0.000610865
75.43561082,0.000610865,0,0
75.48561082,0,-0.000610865,-0.00122173
75.53561082,-0.00122173,-0.001832596,0
75.58561082,-0.000610865,0.00122173,-0.000610865
75.63561082,0,-0.000610865,0.000610865
75.68561082,0,-0.001832596,-0.000610865
75.73561082,0.001832596,-0.00122173,0
75.78561082,0.000610865,0.00122173,0.000610865
75.83561082,-0.001832596,-0.000610865,0
75.88561082,0,0.001832596,0
75.93561082,-0.000610865,0.002443461,-0.000610865
75.98561082,-0.000610865,-0.00122173,0
76.03561082,0.000610865,0.00122173,0.000610865
76.08561082,0,0.000610865,-0.000610865
76.13561082,0.002443461,0,-0.000610865
76.18561082,0,0.000610865,0
76.23561082,0,0.00122173,-0.000610865
76.28561082,0.000610865,0,0.000610865
76.33561082,0.000610865,0.002443461,0
76.38561082,0.000610865,0.00122173,0.000610865
76.43561082,0.000610865,0.00122173,0
76.48561082,-0.000610865,-0.000610865,0.000610865
76.53561082,0.001832596,0.00122173,0.00122173
76.58561082,-0.00122173,0.00122173,0.00122173
76.63561082,-0.00122173,0.000610865,0
76.68561082,-0.001832596,0.00122173,-0.000610865
76.73561082,0,-0.000610865,0
76.78561082,-0.000610865,0.00122173,0
76.83561082,-0.000610865,0.00122173,-0.000610865
76.88561082,0,0.000610865,0
76.93561082,-0.000610865,0,-0.000610865
76.98561082,0.000610865,-0.000610865,-0.00122173
77.03561082,0,0.000610865,0
77.08561082,-0.00122173,0.00122173,0
77.13561082,-0.000610865,0.00122173,-0.000610865
77.18561082,0.000610865,0.00122173,0
77.23561082,0,0.000610865,0
77.28561082,0.00122173,0,-0.000610865
77.33561082,0,-0.000610865,0
77.38561082,0.000610865,0.00122173,0
77.43561082,-0.00122173,-0.000610865,0
77.48561082,0,0.00122173,0
77.53561082,0,0.000610865,0.000610865
77.58561082,-0.001832596,-0.00122173,0
77.63561082,0,-0.000610865,0
77.68561082,-0.000610865,0,0
77.73561082,0,0,-0.000610865
77.78561082,0,0,0
77.83561082,-0.000610865,-0.000610865,-0.00122173
77.88561082,0,0.000610865,0
77.93561082,0.000610865,0.000610865,-0.00122173
77.98561082,0.00122173,-0.001832596,-0.001832596
78.03561082,0.00122173,0,-0.000610865
78.08561082,0,-0.00122173,-0.001832596
78.13561082,0,0.000610865,-0.00122173
78.18561082,0,0.000610865,-0.00122173
78.23561082,0.002443461,0,-0.000610865
78.28561082,-0.000610865,0,-0.00122173
78.33561082,0,0.000610865,-0.000610865
78.38561082,0.000610865,0,-0.00122173
78.43561082,0.000610865,0,-0.000610865
78.48561082,0.000610865,-0.000610865,-0.000610865
78.53561082,0,-0.000610865,-0.00122173
78.58561082,0,0.00122173,0
78.63561082,0,0,0
78.68561082,0.000610865,0.001832596,-0.000610865
78.73561082,0.00122173,0.000610865,-0.000610865
78.78561082,-0.000610865,0.000610865,-0.001832596
78.83561082,0.00122173,0,0
78.88561082,0.00122173,0,-0.000610865
78.93561082,-0.00122173,0.000610865,0
78.98561082,-0.000610865,-0.00122173,0
79.03561082,0,0.00122173,0
79.08561082,-0.00122173,0.001832596,0
79.13561082,0.000610865,0.000610865,0
79.18561082,-0.000610865,0.00122173,0
79.23561082,0.000610865,0.000610865,0.000610865
79.28561082,0.00122173,0.000610865,-0.000610865
79.33561082,0,0,0
79.38561082,0,0.00122173,0
79.43561082,0.00122173,-0.000610865,0
79.48561082,0.00122173,0,0.000610865
79.53561082,0.000610865,0.00122173,-0.00122173
79.58561082,0,0,0
79.63561082,-0.000610865,0.00122173,-0.000610865
79.68561082,0.001832596,0,0.000610865
79.73561082,0,0.001832596,0
79.78561082,0,-0.000610865,0.000610865
79.83561082,0,0.000610865,0
79.88561082,0.00122173,-0.00122173,-0.000610865
79.93561082,0,-0.00122173,-0.000610865
79.98561082,0,0,-0.000610865
80.03561082,-0.000610865,-0.000610865,0
80.08561082,-0.00122173,0.002443461,0
80.13561082,-0.000610865,0,0
80.18561082,0,0.00122173,0
80.23561082,0.000610865,0,0
80.28561082,0,0,-0.000610865
80.33561082,-0.00122173,-0.000610865,-0.000610865
80.38561082,0.000610865,0.000610865,-0.00122173
80.43561082,0,0,0
80.48561082,-0.00122173,0.00122173,-0.000610865
80.53561082,0.000610865,0,0
80.58561082,0.001832596,-0.000610865,-0.00122173
80.63561082,-0.00122173,0.00122173,0
80.68561082,-0.000610865,-0.000610865,0.000610865
80.73561082,0,0.00122173,0
80.78561082,-0.00122173,0,0.000610865
80.83561082,-0.000610865,0.000610865,0
80.88561082,0.000610865,0.000610865,0
80.93561082,0.00122173,0.000610865,-0.000610865
80.98561082,-0.000610865,0,-0.000610865
81.03561082,-0.000610865,0.00122173,0
81.08561082,0.001832596,0.000610865,-0.000610865
81.13561082,0,-0.000610865,-0.000610865
81.18561082,0,0.000610865,0.000610865
81.23561082,0,-0.000610865,0
81.28561082,-0.000610865,0,-0.000610865
81.33561082,-0.00122173,0,-0.000610865
81.38561082,-0.000610865,0,0.000610865
81.43561082,0,0.000610865,0.000610865
81.48561082,0,0.00122173,-0.000610865
81.53561082,-0.000610865,0.001832596,0.000610865
81.58561082,0,0,-0.000610865
81.63561082,0,-0.000610865,0
81.68561082,0,0.000610865,0
81.73561082,0,0.000610865,-0.000610865
81.78561082,-0.000610865,-0.00122173,0
81.83561082,0.001832596,0.000610865,0
81.88561082,0.000610865,0.00122173,0.00122173
81.93561082,-0.00122173,0,0.000610865
81.98561082,-0.000610865,0.00122173,0.000610865
82.03561082,0.000610865,-0.000610865,0
82.08561082,-0.000610865,-0.000610865,0.000610865
82.13561082,-0.000610865,0.000610865,0
82.18561082,0.000610865,0.00122173,0.000610865
82.23561082,0,0,0
82.28561082,-0.000610865,0,-0.000610865
82.33561082,0.000610865,0.000610865,-0.000610865
82.38561082,0.000610865,-0.000610865,-0.000610865
82.43561082,0.00122173,0,0
82.48561082,0,0.00122173,0.000610865
82.53561082,0.00122173,0.000610865,-0.00122173
82.58561082,-0.000610865,-0.000610865,-0.000610865
82.63561082,0,0.000610865,0
82.68561082,0.001832596,-0.000610865,-0.00122173
82.73561082,0.000610865,0.000610865,0
82.78561082,0.001832596,0.00122173,0.00122173
82.83561082,0.001832596,0,0
82.88561082,0.00122173,0,0
82.93561082,0.00122173,0.000610865,0.000610865
82.98561082,-0.000610865,0.00122173,0.000610865
83.03561082,0.001832596,0.000610865,-0.00122173
83.08561082,-0.000610865,0.00122173,0.000610865
83.13561082,0.00122173,-0.001832596,0.000610865
83.18561082,0.002443461,0.000610865,-0.000610865
83.23561082,0,0.000610865,-0.000610865
83.28561082,0.000610865,-0.000610865,-0.00122173
83.33561082,0.000610865,-0.00122173,0
83.38561082,0,-0.000610865,0.000610865
83.43561082,0.000610865,0,-0.00122173
83.48561082,0.000610865,0.001832596,0
83.53561082,-0.000610865,0.000610865,0
83.58561082,-0.001832596,0,0.000610865
83.63561082,-0.001832596,-0.000610865,0
83.68561082,-0.000610865,0,-0.00122173
83.73561082,0.001832596,0.000610865,0
83.78561082,0.00122173,0.00122173,-0.000610865
83.83561082,-0.001832596,0.000610865,0.00122173
83.88561082,0.00122173,0.000610865,0
83.93561082,0.000610865,0,0.000610865
83.98561082,0.000610865,0.00122173,0
84.03561082,0,0.00122173,0
84.08561082,-0.00122173,0.000610865,-0.00122173
84.13561082,0,0,0.000610865
84.18561082,-0.000610865,0,0
84.23561082,-0.000610865,0.000610865,0
84.28561082,0.00122173,0.00122173,-0.000610865
84.33561082,-0.00122173,0,0
84.38561082,0.00122173,0,0
84.43561082,0.000610865,0.00122173,0.000610865
84.48561082,0.000610865,-0.00122173,0
84.53561082,0.00122173,0,-0.000610865
84.58561082,0.00122173,0,0
84.63561082,0.00122173,0.000610865,0
84.68561082,-0.000610865,-0.000610865,0.000610865
84.73561082,0.00122173,0,-0.001832596
84.78561082,0,0.00122173,0
84.83561082,0,-0.001832596,-0.000610865
84.88561082,0.002443461,0,-0.00122173
84.93561082,0.00122173,-0.000610865,0
84.98561082,0,0.000610865,-0.000610865
85.03561082,-0.00122173,-0.000610865,0
85.08561082,-0.00122173,-0.001832596,0
85.13561082,-0.000610865,-0.00122173,0
85.18561082,0.000610865,0.000610865,-0.000610865
85.23561082,0.00122173,0.000610865,-0.000610865
85.28561082,0.000610865,0.00122173,0.000610865
85.33561082,-0.000610865,0.000610865,-0.000610865
85.38561082,-0.000610865,0.001832596,-0.001832596
85.43561082,0,0.001832596,0.000610865
85.48561082,0.00122173,0.001832596,-0.000610865
85.53561082,0.000610865,-0.000610865,0.000610865
85.58561082,0,0.000610865,0.000610865
85.63561082,0.000610865,0.001832596,0
85.68561082,0.000610865,0,0.00122173
85.73561082,-0.001832596,0.00122173,0.000610865
85.78561082,0,-0.000610865,0
85.83561082,-0.000610865,0.000610865,0
85.88561082,0.001832596,0,-0.000610865
85.93561082,0.00122173,0,0
85.98561082,0,-0.000610865,0
86.03561082,0,0.00122173,0.000610865
86.08561082,0.00122173,-0.000610865,-0.000610865
86.13561082,0,0.00122173,-0.000610865
86.18561082,-0.000610865,0,0
86.23561082,0.00122173,0,0.000610865
86.28561082,-0.001832596,-0.00122173,0.000610865
86.33561082,0.000610865,-0.000610865,0.000610865
86.38561082,0.00122173,0.00122173,-0.00122173
86.43561082,0.00122173,0.001832596,-0.00122173
86.48561082,0.000610865,0.000610865,0.000610865
86.53561082,0.00122173,-0.00122173,0
86.58561082,-0.000610865,0.00122173,0.000610865
86.63561082,0.002443461,0.000610865,0
86.68561082,0,0.002443461,0
86.73561082,0,0.000610865,0
86.78561082,0,0.00122173,0
86.83561082,-0.000610865,0,-0.000610865
86.88561082,-0.000610865,0.00122173,-0.000610865
86.93561082,0.001832596,-0.000610865,0
86.98561082,0.001832596,-0.000610865,0.000610865
87.03561082,0.002443461,0.000610865,0
87.08561082,0.001832596,0.000610865,0
87.13561082,0,0,-0.000610865
87.18561082,-0.000610865,0.000610865,0
87.23561082,0,0.000610865,-0.00122173
87.28561082,0.001832596,0.000610865,-0.000610865
87.33561082,0.002443461,0.000610865,0
87.38561082,0.000610865,0,0.000610865
87.43561082,0.00122173,0.000610865,0.000610865
87.48561082,0.002443461,0.00122173,0
87.53561082,0,0,-0.000610865
87.58561082,0,0.000610865,-0.000610865
87.63561082,-0.00122173,0.000610865,0
87.68561082,0,-0.000610865,-0.000610865
87.73561082,0,-0.000610865,0.000610865
87.78561082,0.002443461,0.00122173,-0.000610865
87.83561082,-0.00122173,-0.000610865,0.000610865
87.88561082,-0.000610865,-0.00122173,-0.000610865
87.93561082,-0.00122173,0.000610865,-0.000610865
87.98561082,-0.000610865,0.000610865,0
88.03561082,0.000610865,-0.000610865,0
88.08561082,-0.00122173,0.001832596,0
88.13561082,0.000610865,-0.000610865,0
88.18561082,-0.000610865,0.000610865,0
88.23561082,0.00122173,-0.000610865,-0.00122173
88.28561082,0.00122173,0.000610865,0
88.33561082,-0.001832596,0.000610865,0
88.38561082,-0.001832596,0,-0.000610865
88.43561082,0.00122173,-0.001832596,0.000610865
88.48561082,0.000610865,-0.00122173,-0.00122173
88.53561082,0.00122173,0.000610865,-0.000610865
88.58561082,0.000610865,0.002443461,-0.000610865
88.63561082,-0.000610865,0.000610865,0
88.68561082,0.002443461,0.000610865,-0.000610865
88.73561082,0.002443461,0.001832596,0
88.78561082,0.000610865,-0.000610865,0.000610865
88.83561082,0.00122173,0.00122173,0.000610865
88.88561082,0.000610865,0.00122173,0
88.93561082,0.000610865,0,0
88.98561082,0.00122173,0.000610865,-0.000610865
89.03561082,0,0.002443461,0
89.08561082,0.002443461,-0.000610865,0.000610865
89.13561082,0.00122173,-0.000610865,0
89.18561082,0,-0.00122173,0
89.23561082,0.00122173,-0.000610865,0
89.28561082,0.001832596,0.000610865,0.000610865
89.33561082,0.000610865,0.003054326,-0.000610865
89.38561082,0,0,-0.000610865
89.43561082,0,0,0
89.48561082,-0.000610865,0.000610865,0
89.53561082,-0.000610865,0,0
89.58561082,0.000610865,0.000610865,-0.000610865
89.63561082,0.00122173,0.000610865,0
89.68561082,0.00122173,-0.000610865,0
89.73561082,0.00122173,0.000610865,0.00122173
89.78561082,0.00122173,-0.000610865,0.000610865
89.83561082,-0.000610865,0,0
89.88561082,0.002443461,0.00122173,0
89.93561082,0.00122173,0.00122173,-0.000610865
89.98561082,0.00122173,0,-0.000610865
90.03561082,0.00122173,0.001832596,0
90.08561082,0.000610865,-0.000610865,0.000610865
90.13561082,-0.00122173,0.00122173,-0.00122173
90.18561082,0.00122173,0,0.000610865
90.23561082,0.00122173,0.000610865,0.00122173
90.28561082,-0.000610865,0,0.000610865
90.33561082,0.002443461,0,-0.000610865
90.38561082,0.003054326,0.000610865,0.000610865
90.43561082,-0.000610865,0.000610865,0
90.48561082,0.000610865,-0.000610865,0
90.53561082,0,0,-0.000610865
90.58561082,-0.000610865,0,0.000610865
90.63561082,0.001832596,0,-0.000610865
90.68561082,0.000610865,-0.000610865,0
90.73561082,-0.000610865,-0.000610865,-0.000610865
90.78561082,0.00122173,0.000610865,-0.000610865
90.83561082,-0.00122173,0.00122173,0.000610865
90.88561082,0.000610865,0.000610865,0
90.93561082,0,0,-0.000610865
90.98561082,0.000610865,0.001832596,-0.000610865
91.03561082,0,0.000610865,-0.000610865
91.08561082,-0.00122173,0,0
91.13561082,0.000610865,0.001832596,-0.000610865
91.18561082,0.001832596,0.000610865,0
91.23561082,-0.000610865,-0.000610865,0
91.28561082,-0.000610865,0.000610865,-0.00122173
91.33561082,0.000610865,0.000610865,0.000610865
91.38561082,0,0.00122173,0
91.43561082,0.001832596,0,0.000610865
91.48561082,-0.000610865,-0.00122173,-0.00122173
91.53561082,-0.000610865,0.00122173,-0.000610865
91.58561082,0.00122173,0.000610865,0
91.63561082,0.000610865,0,0
91.68561082,0,0.00122173,-0.000610865
91.73561082,0.000610865,0.000610865,-0.000610865
91.78561082,0.000610865,-0.000610865,-0.000610865
91.83561082,0.00122173,-0.000610865,0
91.88561082,0.000610865,0,0
91.93561082,-0.000610865,0.000610865,0
91.98561082,0.000610865,0.000610865,-0.000610865
92.03561082,0.00122173,0,0.000610865
92.08561082,0.00122173,0.001832596,0.000610865
92.13561082,0.00122173,0.000610865,0
92.18561082,0,0.000610865,0
92.23561082,0,0.002443461,0.000610865
92.28561082,0.00122173,0.002443461,0
92.33561082,0.000610865,-0.000610865,-0.000610865
92.38561082,0.000610865,0,-0.000610865
92.43561082,-0.00122173,0.00122173,-0.000610865
92.48561082,-0.00122173,0,0.000610865
92.53561082,-0.000610865,-0.000610865,0
92.58561082,-0.00122173,0.000610865,0.000610865
92.63561082,0.000610865,-0.000610865,0.000610865
92.68561082,0,0.00122173,-0.000610865
92.73561082,0.00122173,-0.000610865,-0.000610865
92.78561082,0.00122173,0.000610865,-0.000610865
92.83561082,-0.000610865,0.000610865,-0.001832596
92.88561082,-0.00122173,0.00122173,-0.000610865
92.93561082,-0.000610865,0.000610865,-0.000610865
92.98561082,0.001832596,0,0.000610865
93.03561082,0.00122173,-0.000610865,-0.000610865
93.08561082,0.000610865,0.00122173,-0.00122173
93.13561082,0.00122173,-0.000610865,-0.000610865
93.18561082,-0.000610865,0.00122173,0
93.23561082,-0.000610865,0.00122173,-0.000610865
93.28561082,0,0,0
93.33561082,0.000610865,0,0.000610865
93.38561082,-0.000610865,-0.000610865,0
93.43561082,0.001832596,-0.000610865,-0.000610865
93.48561082,0,0.001832596,0
93.53561082,0.001832596,0.000610865,0
93.58561082,0.002443461,0.001832596,0.000610865
93.63561082,0.001832596,0.00122173,0
93.68561082,0.000610865,0.002443461,-0.00122173
93.73561082,-0.001832596,0,0
93.78561082,0.000610865,0,-0.000610865
93.83561082,0.000610865,-0.00122173,-0.000610865
93.88561082,-0.00122173,0.00122173,0
93.93561082,0.000610865,0.001832596,-0.000610865
93.98561082,-0.000610865,-0.000610865,0
94.03561082,0.000610865,-0.000610865,0
94.08561082,0.000610865,-0.00122173,0.000610865
94.13561082,0.00122173,0.000610865,0.000610865
94.18561082,0.000610865,-0.000610865,-0.00122173
94.23561082,0.00122173,0,0.000610865
94.28561082,0.001832596,0.00122173,0.000610865
94.33561082,0.00122173,0,0.000610865
94.38561082,-0.000610865,0.000610865,0
94.43561082,0,-0.000610865,0
94.48561082,0.001832596,0.000610865,-0.000610865
94.53561082,0.000610865,0,-0.00122173
94.58561082,0.001832596,0.000610865,0.000610865
94.63561082,-0.000610865,0.000610865,0
94.68561082,-0.000610865,0,-0.00122173
94.73561082,0.00122173,0,0.000610865
94.78561082,0.000610865,0.00122173,0
94.83561082,0.000610865,0.00122173,0.000610865
94.88561082,0.001832596,0,0
94.93561082,0.00122173,0.002443461,0
94.98561082,0,0.001832596,0
95.03561082,0,0.000610865,-0.000610865
95.08561082,0.00122173,0.000610865,0
95.13561082,0.000610865,-0.000610865,0
95.18561082,0,0,0.000610865
95.23561082,0.002443461,0.000610865,0.000610865
95.28561082,0.002443461,0.000610865,0.000610865
95.33561082,0.000610865,-0.001832596,0
95.38561082,0,0,0
95.43561082,0.001832596,0,-0.000610865
95.48561082,0.000610865,0,0
95.53561082,0,0.003665192,0
95.58561082,-0.000610865,0,0.000610865
95.63561082,-0.00122173,0,0
95.68561082,0.000610865,0.00122173,-0.000610865
95.73561082,0.000610865,0.00122173,-0.00122173
95.78561082,0,0.001832596,-0.00122173
95.83561082,0,0.000610865,0.000610865
95.88561082,0.00122173,-0.000610865,0
95.93561082,0.003054326,0.001832596,-0.000610865
95.98561082,0.002443461,0.000610865,0
96.03561082,0.00122173,0.00122173,-0.000610865
96.08561082,0.000610865,-0.000610865,0
96.13561082,0.00122173,0,0
96.18561082,0.00122173,0,0
96.23561082,0.00122173,-0.00122173,-0.000610865
96.28561082,-0.000610865,0.00122173,0
96.33561082,0.000610865,0.000610865,0.000610865
96.38561082,-0.000610865,-0.000610865,0
96.43561082,0.000610865,0.00122173,-0.00122173
96.48561082,0,0,-0.000610865
96.53561082,-0.000610865,0.000610865,0.00122173
96.58561082,-0.000610865,0,0.000610865
96.63561082,0,0.00122173,0.000610865
96.68561082,0,-0.000610865,0
96.73561082,-0.000610865,0,0
96.78561082,0.001832596,0.000610865,-0.000610865
96.83561082,-0.00122173,0.001832596,0.00122173
96.88561082,-0.00122173,-0.001832596,0.000610865
96.93561082,0,0.00122173,0
96.98561082,0.00122173,0,0
97.03561082,0.000610865,0.00122173,0.00122173
97.08561082,0.003054326,0.001832596,-0.000610865
97.13561082,0.00122173,0.002443461,-0.000610865
97.18561082,0,-0.000610865,0
97.23561082,-0.000610865,0.000610865,0
97.28561082,0,-0.001832596,-0.000610865
97.33561082,-0.000610865,0.001832596,0
97.38561082,-0.000610865,0.001832596,-0.000610865
97.43561082,-0.001832596,0,-0.000610865
97.48561082,0.000610865,-0.00122173,0
97.53561082,0.00122173,0.00122173,-0.00122173
97.58561082,0,0.000610865,-0.000610865
97.63561082,0.001832596,-0.000610865,0
97.68561082,0,0,0
97.73561082,-0.000610865,-0.00122173,0
97.78561082,0,0.000610865,0.000610865
97.83561082,-0.000610865,0.000610865,0.000610865
97.88561082,-0.000610865,0.000610865,0
97.93561082,0.000610865,-0.000610865,-0.000610865
97.98561082,0.000610865,0.00122173,0.00122173
98.03561082,0,0.00122173,-0.000610865
98.08561082,0,0.00122173,0.000610865
98.13561082,-0.00122173,0,0
98.18561082,0.00122173,0.000610865,-0.000610865
98.23561082,0.000610865,0,0.000610865
98.28561082,-0.000610865,-0.000610865,-0.000610865
98.33561082,0,0.002443461,0
98.38561082,0.000610865,-0.000610865,0
98.43561082,0.000610865,-0.000610865,-0.000610865
98.48561082,0.00122173,0,0.000610865
98.53561082,0,-0.000610865,-0.000610865
98.58561082,0,0.000610865,0.00122173
98.63561082,0.000610865,0.00122173,-0.000610865
98.68561082,0,0.000610865,0
98.73561082,0.000610865,0.000610865,-0.000610865
98.78561082,0.000610865,0,-0.000610865
98.83561082,-0.000610865,0.00122173,-0.000610865
98.88561082,-0.000610865,0,0
98.93561082,-0.000610865,0,0.000610865
98.98561082,-0.000610865,0.000610865,-0.000610865
99.03561082,0,-0.000610865,0
99.08561082,0.00122173,0.00122173,-0.001832596
99.13561082,0,0.000610865,0.000610865
99.18561082,0,0.000610865,0
99.23561082,0.000610865,0,0
99.28561082,0.001832596,0.00122173,0
99.33561082,-0.001832596,0.000610865,0.000610865
99.38561082,-0.000610865,0,-0.000610865
99.43561082,0.001832596,0.001832596,-0.000610865
99.48561082,-0.00122173,0.000610865,-0.000610865
99.53561082,-0.000610865,0.00122173,0
99.58561082,0,-0.000610865,-0.00122173
99.63561082,-0.000610865,-0.000610865,-0.000610865
99.68561082,-0.00122173,0,-0.000610865
99.73561082,0,0.002443461,0
99.78561082,0,0,-0.000610865
99.83561082,-0.000610865,0.001832596,0
99.88561082,0,0,0.000610865
99.93561082,0,-0.000610865,0
99.98561082,-0.000610865,-0.00122173,0
100.0356108,-0.000610865,-0.000610865,0
100.0856108,0.000610865,0.00122173,-0.00122173
100.1356108,-0.000610865,-0.00122173,0
100.1856108,0.000610865,0.000610865,0
100.2356108,0.000610865,-0.000610865,0
100.2856108,0,0,0
100.3356108,0,0.001832596,-0.000610865
100.3856108,-0.000610865,0.001832596,-0.000610865
100.4356108,0,-0.000610865,0.000610865
100.4856108,0.000610865,-0.001832596,0
100.5356108,-0.002443461,-0.000610865,0.00122173
100.5856108,0,-0.000610865,0.000610865
100.6356108,-0.002443461,0.000610865,0
100.6856108,-0.000610865,-0.00122173,-0.000610865
100.7356108,-0.000610865,0.001832596,-0.00122173
100.7856108,-0.00122173,-0.000610865,0
100.8356108,0.000610865,0.000610865,0.000610865
100.8856108,0.000610865,0.000610865,0
100.9356108,0.00122173,0,-0.000610865
100.9856108,-0.001832596,0,0
101.0356108,-0.000610865,-0.00122173,-0.000610865
101.0856108,0,-0.000610865,0.000610865
101.1356108,0.000610865,0.001832596,-0.000610865
101.1856108,0.000610865,-0.000610865,-0.000610865
101.2356108,-0.000610865,0.00122173,0
101.2856108,0.001832596,0.001832596,-0.000610865
101.3356108,0.000610865,0,0
101.3856108,0,0.001832596,0
101.4356108,0,-0.00122173,0.000610865
101.4856108,0.00122173,-0.000610865,0
101.5356108,0.002443461,0.00122173,0
101.5856108,-0.00122173,-0.001832596,-0.00122173
101.6356108,0,0,0
101.6856108,0.00122173,0,0
101.7356108,0.00122173,0.00122173,-0.00122173
101.7856108,0.00122173,0.001832596,0.000610865
101.8356108,-0.000610865,0.00122173,0
101.8856108,0.000610865,0.00122173,0
101.9356108,0,0.00122173,0
101.9856108,0.000610865,-0.000610865,-0.000610865
102.0356108,-0.000610865,0.000610865,0
102.0856108,0.00122173,0,-0.000610865
102.1356108,0.000610865,0.000610865,-0.000610865
102.1856108,-0.00122173,-0.000610865,-0.000610865
102.2356108,0.000610865,0.000610865,-0.000610865
102.2856108,0.000610865,0.00122173,0
102.3356108,0.00122173,-0.000610865,0
102.3856108,-0.00122173,0.00122173,-0.000610865
102.4356108,-0.00122173,0,-0.000610865
102.4856108,-0.00122173,0,-0.000610865
102.5356108,0.00122173,0.00122173,-0.000610865
102.5856108,0.000610865,0,-0.000610865
102.6356108,-0.00122173,0.000610865,-0.000610865
102.6856108,0,0,0
102.7356108,0,0.000610865,0.000610865
102.7856108,0.00122173,-0.000610865,0
102.8356108,0.000610865,0.00122173,0
102.8856108,0,0,-0.000610865
102.9356108,0.00122173,0.000610865,-0.000610865
102.9856108,0,0,0
103.0356108,0.000610865,0,0
103.0856108,-0.000610865,0.000610865,-0.000610865
103.1356108,-0.000610865,0,0
103.1856108,-0.000610865,0,0.000610865
103.2356108,0,-0.00122173,-0.000610865
103.2856108,-0.000610865,0,0
103.3356108,-0.00122173,0.00122173,0
103.3856108,0,-0.000610865,0.000610865
103.4356108,0.000610865,0,-0.000610865
103.4856108,0.000610865,0.00122173,0.000610865
103.5356108,0.000610865,0.000610865,0.000610865
103.5856108,0,-0.000610865,-0.000610865
103.6356108,0.00122173,0,0
103.6856108,-0.000610865,0.000610865,-0.00122173
103.7356108,-0.00122173,0.00122173,0
103.7856108,0.000610865,0.00122173,-0.000610865
103.8356108,-0.000610865,0.000610865,0.000610865
103.8856108,0,0,0
103.9356108,0,0,0.000610865
103.9856108,0.000610865,0.002443461,0
104.0356108,0.000610865,0.00122173,-0.001832596
104.0856108,0,0.00122173,0
104.1356108,0,0.000610865,-0.000610865
104.1856108,-0.000610865,0,-0.00122173
104.2356108,0,0.000610865,0
104.2856108,-0.000610865,0,0
104.3356108,0,0.001832596,0
104.3856108,0,-0.000610865,0.000610865
104.4356108,0.000610865,0,-0.000610865
104.4856108,0,0,0.000610865
104.5356108,0.00122173,0.00122173,0.000610865
104.5856108,0.000610865,0.000610865,0.000610865
104.6356108,0.000610865,0,0.000610865
104.6856108,0,-0.00122173,0
104.7356108,0.000610865,-0.000610865,0
104.7856108,0.000610865,0,0
104.8356108,-0.00122173,0.001832596,0
104.8856108,0,0.000610865,0
104.9356108,-0.00122173,0.000610865,-0.000610865
104.9856108,0.000610865,0.00122173,0
105.0356108,-0.000610865,-0.000610865,-0.000610865
105.0856108,0,-0.000610865,0.000610865
105.1356108,-0.001832596,0.000610865,0
105.1856108,-0.000610865,0,0
105.2356108,0,0.000610865,-0.000610865
105.2856108,0.001832596,0.000610865,0
105.3356108,0.00122173,0.00122173,0
105.3856108,-0.00122173,0.00122173,-0.000610865
105.4356108,0,0.00122173,0
105.4856108,0.001832596,0.002443461,0
105.5356108,-0.000610865,0,-0.000610865
105.5856108,0.00122173,0.00122173,0
105.6356108,0.000610865,0,-0.000610865
105.6856108,0,0.000610865,-0.000610865
105.7356108,0.00122173,-0.000610865,-0.000610865
105.7856108,0.000610865,0.000610865,0
105.8356108,0.000610865,0,-0.000610865
105.8856108,-0.00122173,-0.000610865,0
105.9356108,-0.000610865,-0.00122173,-0.000610865
105.9856108,0,0.00122173,0.000610865
106.0356108,0.000610865,0.00122173,0
106.0856108,0,-0.000610865,0
106.1356108,0.001832596,0,0
106.1856108,-0.00122173,0.00122173,0
106.2356108,0.000610865,0.000610865,0
106.2856108,0.00122173,-0.00122173,0
106.3356108,-0.000610865,0.00122173,-0.00122173
106.3856108,-0.00122173,0.00122173,0
106.4356108,0.000610865,-0.00122173,0.000610865
106.4856108,0.001832596,0,0
106.5356108,0,-0.00122173,0.000610865
106.5856108,0.000610865,0.00122173,-0.000610865
106.6356108,0.000610865,0.00122173,-0.000610865
106.6856108,0.000610865,-0.001832596,0
106.7356108,0,-0.000610865,0.00122173
106.7856108,0,-0.00122173,-0.000610865
106.8356108,0.000610865,0,0
106.8856108,-0.000610865,0.000610865,0
106.9356108,0,0,-0.000610865
106.9856108,-0.000610865,0.00122173,0
107.0356108,0,0.00122173,0.000610865
107.0856108,0.000610865,-0.00122173,-0.000610865
107.1356108,0,0,0
107.1856108,-0.000610865,0.00122173,-0.000610865
107.2356108,0,0.000610865,-0.000610865
107.2856108,0,0.001832596,0
107.3356108,0.00122173,0.00122173,-0.000610865
107.3856108,0.000610865,0.000610865,0
107.4356108,0,0.00122173,0
107.4856108,0.00122173,0,0
107.5356108,0.00122173,0,-0.000610865
107.5856108,-0.000610865,0,0.000610865
107.6356108,-0.00122173,-0.000610865,0
107.6856108,0.000610865,-0.002443461,0.000610865
107.7356108,0.00122173,-0.00122173,-0.000610865
107.7856108,0,0.00122173,0
107.8356108,0,0.000610865,-0.000610865
107.8856108,0.00122173,0.00122173,0
107.9356108,0.001832596,0.000610865,0
107.9856108,-0.00122173,0,0.000610865
108.0356108,0,0.00122173,-0.000610865
108.0856108,-0.000610865,0,0.000610865
108.1356108,0.000610865,-0.00122173,0
108.1856108,0.00122173,-0.00122173,0
108.2356108,-0.002443461,0.000610865,-0.00122173
108.2856108,0.000610865,0.00122173,-0.000610865
108.3356108,0.000610865,0.00122173,0
108.3856108,0.000610865,0.000610865,-0.000610865
108.4356108,0.00122173,0.00122173,0
108.4856108,0.000610865,0.000610865,-0.000610865
108.5356108,0.001832596,-0.000610865,0
108.5856108,0.00122173,-0.00122173,0
108.6356108,-0.00122173,-0.000610865,0
108.6856108,-0.00122173,0.001832596,-0.000610865
108.7356108,-0.000610865,0.000610865,-0.00122173
108.7856108,-0.000610865,0,-0.000610865
108.8356108,0.00122173,-0.000610865,-0.000610865
108.8856108,0,0.000610865,-0.000610865
108.9356108,-0.000610865,0.00122173,0
108.9856108,-0.002443461,0.00122173,0
109.0356108,0.00122173,0.001832596,-0.000610865
109.0856108,0.00122173,0.00122173,0
109.1356108,0,0.000610865,-0.000610865
109.1856108,-0.000610865,-0.00122173,0
109.2356108,0.00122173,0.00122173,0
109.2856108,0.00122173,-0.000610865,0
109.3356108,0,-0.000610865,0.000610865
109.3856108,0,-0.00122173,-0.000610865
109.4356108,0,-0.000610865,-0.000610865
109.4856108,0,-0.000610865,-0.001832596
109.5356108,-0.00122173,-0.000610865,-0.000610865
109.5856108,0,0.001832596,-0.000610865
109.6356108,0,-0.000610865,-0.000610865
109.6856108,0.001832596,0,0
109.7356108,0.00122173,-0.00122173,0.000610865
109.7856108,0,0.00122173,0
109.8356108,-0.00122173,0,0
109.8856108,-0.00122173,-0.000610865,-0.000610865
109.9356108,0.000610865,-0.00122173,-0.000610865
109.9856108,-0.00122173,0,0
110.0356108,-0.00122173,-0.000610865,0
110.0856108,0,0,0
110.1356108,-0.00122173,0,0
110.1856108,-0.00122173,0,-0.000610865
110.2356108,-0.00122173,0.000610865,-0.00122173
110.2856108,0,0.00122173,0.000610865
110.3356108,0.002443461,0.00122173,-0.000610865
110.3856108,0.00122173,0.000610865,-0.000610865
110.4356108,-0.00122173,0,0.000610865
110.4856108,0.000610865,0,0
110.5356108,0.000610865,0.000610865,0
110.5856108,0.000610865,0.000610865,0
110.6356108,0.000610865,0.000610865,0
110.6856108,0.00122173,0,-0.000610865
110.7356108,-0.000610865,-0.00122173,0.000610865
110.7856108,0.001832596,0,0.000610865
110.8356108,0.002443461,0.000610865,0.000610865
110.8856108,-0.000610865,0.001832596,0
110.9356108,0,0,-0.000610865
110.9856108,0.000610865,-0.000610865,0
111.0356108,0.001832596,0.00122173,-0.000610865
111.0856108,-0.00122173,0.00122173,0.000610865
111.1356108,-0.00122173,-0.001832596,0.000610865
111.1856108,0.00122173,0.00122173,0
111.2356108,-0.001832596,0.00122173,0
111.2856108,0,0.000610865,-0.000610865
111.3356108,0.00122173,0.000610865,-0.000610865
111.3856108,0.00122173,-0.000610865,-0.000610865
111.4356108,0,0.00122173,0
111.4856108,0.00122173,0.001832596,0
111.5356108,0.001832596,0.00122173,0
111.5856108,0,0.000610865,0
111.6356108,0,-0.000610865,0.000610865
111.6856108,0.001832596,0.00122173,0
111.7356108,0,0.000610865,0
111.7856108,-0.000610865,-0.001832596,-0.000610865
111.8356108,0.000610865,-0.000610865,0.000610865
111.8856108,0.001832596,-0.000610865,-0.000610865
111.9356108,0.00122173,0.001832596,-0.000610865
111.9856108,0.000610865,0,-0.000610865
112.0356108,0.000610865,0,0
112.0856108,0.00122173,0.000610865,0.000610865
112.1356108,0.000610865,0.000610865,0.000610865
112.1856108,0.000610865,-0.00122173,0
112.2356108,-0.00122173,0.001832596,0.000610865
112.2856108,0.00122173,0.000610865,0
112.3356108,0,0.000610865,0.00122173
112.3856108,-0.000610865,-0.00122173,0.000610865
112.4356108,-0.000610865,-0.000610865,0
112.4856108,0.00122173,0.00122173,0.000610865
112.5356108,-0.000610865,0,-0.000610865
112.5856108,0.002443461,0.000610865,-0.000610865
112.6356108,0.001832596,0,-0.000610865
112.6856108,0.000610865,-0.000610865,0
112.7356108,0.00122173,0,0
112.7856108,-0.000610865,0.000610865,0.000610865
112.8356108,-0.000610865,-0.000610865,-0.000610865
112.8856108,0.00122173,0.00122173,0.000610865
112.9356108,-0.000610865,0,-0.00122173
112.9856108,0.000610865,0.000610865,0
113.0356108,0.000610865,0,-0.000610865
113.0856108,-0.001832596,0.000610865,-0.000610865
113.1356108,0,0.00122173,0
113.1856108,0.000610865,0.000610865,0.001832596
113.2356108,0.003054326,-0.000610865,-0.000610865
113.2856108,0,0,0
113.3356108,-0.000610865,0.000610865,0.000610865
113.3856108,0,0.002443461,-0.00122173
113.4356108,0,0.002443461,-0.00122173
113.4856108,0,0,0.000610865
113.5356108,0.000610865,0,0
113.5856108,0.001832596,0,0
113.6356108,0.000610865,0,0
113.6856108,-0.002443461,0,-0.00122173
113.7356108,-0.000610865,0.00122173,0
113.7856108,-0.000610865,0,0
113.8356108,0.001832596,0.00122173,0.000610865
113.8856108,0.000610865,-0.000610865,-0.000610865
113.9356108,0.001832596,0.000610865,-0.00122173
113.9856108,0.001832596,0.002443461,0
114.0356108,-0.000610865,0.000610865,0
114.0856108,0.00122173,0.00122173,0
114.1356108,-0.000610865,0.00122173,0
114.1856108,0,0.000610865,-0.000610865
114.2356108,-0.000610865,-0.001832596,0
114.2856108,0.000610865,0,0.000610865
114.3356108,0.001832596,0,0.000610865
114.3856108,0.00122173,0.000610865,-0.000610865
114.4356108,0,-0.000610865,0
114.4856108,0.000610865,0,0.000610865
114.5356108,0,-0.00122173,0
114.5856108,0,0.000610865,0.000610865
114.6356108,0,0.000610865,0
114.6856108,0.000610865,-0.000610865,0
114.7356108,0.001832596,0.000610865,-0.000610865
114.7856108,-0.001832596,0.000610865,0
114.8356108,-0.000610865,0.001832596,-0.000610865
114.8856108,0.001832596,0.000610865,0.000610865
114.9356108,0.00122173,0.00122173,-0.00122173
114.9856108,0,-0.000610865,0
115.0356108,0.00122173,0.001832596,0
115.0856108,-0.00122173,0.00122173,0.000610865
115.1356108,0.00122173,0.000610865,-0.000610865
115.1856108,0.000610865,-0.000610865,-0.00122173
115.2356108,-0.000610865,0.000610865,0.00122173
115.2856108,0,-0.000610865,-0.000610865
115.3356108,0.00122173,0,-0.000610865
115.3856108,0,0,-0.000610865
115.4356108,0,0.000610865,0.000610865
115.4856108,0,0.00122173,0
115.5356108,-0.000610865,0.00122173,0.000610865
115.5856108,0.000610865,0.000610865,-0.000610865
115.6356108,0,0.000610865,0
115.6856108,0,-0.000610865,0.000610865
115.7356108,0.00122173,0.00122173,0
115.7856108,0.000610865,0.00122173,0.000610865
115.8356108,0.00122173,0.000610865,0
115.8856108,-0.000610865,-0.00122173,-0.000610865
115.9356108,0.000610865,0.000610865,0.00122173
115.9856108,-0.001832596,0.000610865,0
116.0356108,0,0.00122173,0
116.0856108,0,0,0
116.1356108,0.00122173,0.000610865,0
116.1856108,0,0.00122173,-0.00122173
116.2356108,0.00122173,-0.000610865,0.000610865
116.2856108,0.00122173,0.000610865,0.000610865
116.3356108,0.00122173,0.00122173,0
116.3856108,0.00122173,-0.00122173,0
116.4356108,0,0.000610865,0.000610865
116.4856108,0.00122173,0.002443461,-0.000610865
116.5356108,0.000610865,0,-0.000610865
116.5856108,0.00122173,-0.00122173,0
116.6356108,0.002443461,0.000610865,-0.000610865
116.6856108,0.000610865,0.000610865,-0.00122173
116.7356108,0,0.00122173,0
116.7856108,0,0.000610865,-0.000610865
116.8356108,0,-0.000610865,-0.000610865
116.8856108,0,-0.000610865,0
116.9356108,-0.00122173,-0.000610865,0.000610865
116.9856108,0.000610865,-0.00122173,-0.00122173
117.0356108,0.000610865,0,0.000610865
117.0856108,-0.000610865,0,0
117.1356108,0.000610865,0.000610865,0
117.1856108,0,-0.000610865,0
117.2356108,-0.000610865,-0.001832596,0.000610865
117.2856108,0.001832596,0.001832596,0
117.3356108,0,0.00122173,0
117.3856108,0,0.000610865,-0.000610865
117.4356108,-0.00122173,0.00122173,0.000610865
117.4856108,-0.000610865,0.001832596,-0.000610865
117.5356108,-0.00122173,0.000610865,0.000610865
117.5856108,0.00122173,0,0.000610865
117.6356108,-0.000610865,0.00122173,-0.000610865
117.6856108,-0.000610865,0.000610865,-0.000610865
117.7356108,-0.000610865,-0.00122173,0
117.7856108,0,0.00122173,-0.000610865
117.8356108,-0.000610865,0,0.00122173
117.8856108,0,0,0
117.9356108,0.000610865,0.00122173,0.000610865
117.9856108,0.000610865,0.00122173,0.000610865
118.0356108,0.000610865,0,0.000610865
118.0856108,0,0.000610865,-0.00122173
118.1356108,0.001832596,0.001832596,-0.000610865
118.1856108,0.001832596,0.000610865,-0.000610865
118.2356108,0,-0.00122173,-0.000610865
118.2856108,0.001832596,-0.00122173,0.00122173
118.3356108,0,0.000610865,0.000610865
118.3856108,-0.000610865,0,-0.000610865
118.4356108,0,0,0.000610865
118.4856108,0.00122173,0.001832596,0
118.5356108,-0.000610865,0.000610865,-0.000610865
118.5856108,0.003054326,-0.000610865,0
118.6356108,0,0,-0.000610865
118.6856108,0.001832596,0.001832596,0
118.7356108,0.000610865,0.000610865,0
118.7856108,0.000610865,-0.000610865,0
118.8356108,0.000610865,0.000610865,0
118.8856108,0.00122173,0,0.000610865
118.9356108,0.000610865,0.000610865,-0.000610865
118.9856108,0.001832596,0,-0.000610865
119.0356108,0.00122173,0.000610865,-0.00122173
119.0856108,0,0,-0.00122173
119.1356108,0.000610865,0.000610865,-0.00122173
119.1856108,-0.000610865,-0.000610865,-0.00122173
119.2356108,0,0,-0.000610865
119.2856108,0,0.00122173,0
119.3356108,-0.000610865,-0.000610865,-0.000610865
119.3856108,0,0,-0.00122173
119.4356108,-0.000610865,0.00122173,0
119.4856108,0.00122173,0.000610865,-0.000610865
119.5356108,0.000610865,0,-0.000610865
119.5856108,0,0.000610865,-0.00122173
119.6356108,-0.000610865,0.000610865,0
119.6856108,0,0.001832596,-0.000610865
119.7356108,0.00122173,-0.00122173,0
119.7856108,0,0.000610865,-0.000610865
119.8356108,0.000610865,0,0
119.8856108,0.000610865,0,-0.000610865
119.9356108,0,-0.000610865,0
119.9856108,-0.000610865,0,-0.000610865
120.0356108,-0.000610865,-0.000610865,-0.000610865
120.0856108,0.00122173,0.000610865,-0.000610865
120.1356108,0.000610865,0,0.00122173
120.1856108,0.000610865,0,0
120.2356108,0.000610865,0.00122173,-0.000610865
120.2856108,0.00122173,0,0.000610865
120.3356108,0.000610865,0.00122173,0
120.3856108,0.00122173,-0.001832596,-0.000610865
120.4356108,0.000610865,-0.000610865,0
120.4856108,0,0.000610865,0
120.5356108,-0.000610865,0.00122173,0
120.5856108,-0.000610865,0,0.000610865
120.6356108,-0.000610865,0.00122173,0
120.6856108,-0.00122173,-0.000610865,-0.000610865
120.7356108,-0.000610865,0,-0.000610865
120.7856108,0,0.000610865,-0.000610865
120.8356108,0.000610865,0,0
120.8856108,0,0,-0.000610865
120.9356108,-0.000610865,0.000610865,0
120.9856108,0.001832596,0.00122173,-0.000610865
121.0356108,0.000610865,0.00122173,0.000610865
121.0856108,0.000610865,0.00122173,0.000610865
121.1356108,0.00122173,0,-0.000610865
121.1856108,-0.000610865,0.000610865,-0.000610865
121.2356108,0.00122173,0.000610865,0.000610865
121.2856108,-0.000610865,0.001832596,0.000610865
121.3356108,0.000610865,0,-0.00122173
121.3856108,-0.003054326,0.003054326,0
121.4356108,0,-0.000610865,0
121.4856108,0.001832596,-0.00122173,0.00122173
121.5356108,0,0.001832596,-0.000610865
121.5856108,0,0.00122173,-0.000610865
121.6356108,-0.00122173,0,0
121.6856108,0,0.001832596,0
121.7356108,-0.002443461,0,-0.000610865
121.7856108,0,0,-0.000610865
121.8356108,-0.000610865,0,0
121.8856108,0.000610865,0.000610865,0
121.9356108,0.000610865,0.000610865,0
121.9856108,-0.000610865,-0.000610865,-0.000610865
122.0356108,0.001832596,0,-0.000610865
122.0856108,0.000610865,-0.000610865,0
122.1356108,0,0.001832596,0
122.1856108,0.001832596,-0.000610865,0.000610865
122.2356108,0.000610865,0.00122173,0.000610865
122.2856108,0,-0.00122173,0
122.3356108,0.001832596,0,-0.000610865
122.3856108,0,-0.000610865,-0.000610865
122.4356108,0,0,0.00122173
122.4856108,0.001832596,-0.000610865,-0.00122173
122.5356108,0.000610865,0.00122173,-0.000610865
122.5856108,0.000610865,-0.000610865,0.000610865
122.6356108,0.000610865,-0.001832596,-0.000610865
122.6856108,0.000610865,0,0
122.7356108,0.001832596,0.000610865,-0.000610865
122.7856108,0.003054326,0.000610865,0.000610865
122.8356108,0.000610865,-0.000610865,0.000610865
122.8856108,0,0,0.00122173
122.9356108,0,0.000610865,0.000610865
122.9856108,-0.00122173,0.000610865,-0.000610865
123.0356108,0.001832596,0.00122173,0
123.0856108,0,0.00122173,0.000610865
123.1356108,0.00122173,0,0
123.1856108,0.001832596,0.001832596,0.000610865
123.2356108,-0.002443461,0.00122173,0
123.2856108,0.002443461,0,0
123.3356108,0.001832596,0,-0.00122173
123.3856108,0,0,0.000610865
123.4356108,0.00122173,-0.00122173,0
123.4856108,0.00122173,0.00122173,0
123.5356108,0.001832596,0,0
123.5856108,-0.000610865,0.000610865,0.00122173
123.6356108,0,0,0.000610865
123.6856108,0.003054326,-0.000610865,0.000610865
123.7356108,0.00122173,0.000610865,-0.000610865
123.7856108,0.001832596,0,-0.000610865
123.8356108,0.002443461,0,-0.000610865
123.8856108,0.00122173,0.00122173,0.000610865
123.9356108,0.000610865,0.00122173,0.000610865
123.9856108,0.00122173,0.00122173,-0.000610865
124.0356108,0.001832596,0.002443461,-0.00122173
124.0856108,0.000610865,0,-0.000610865
124.1356108,0,-0.00122173,0
124.1856108,-0.000610865,0.001832596,0
124.2356108,0.002443461,0.00122173,-0.00122173
124.2856108,0.000610865,-0.000610865,0
124.3356108,0.000610865,-0.000610865,0
124.3856108,0.001832596,0.000610865,-0.00122173
124.4356108,0,0,-0.001832596
124.4856108,0.00122173,-0.00122173,-0.00122173
124.5356108,0,-0.00122173,-0.00122173
124.5856108,-0.002443461,0.001832596,0
124.6356108,0,0.000610865,-0.001832596
124.6856108,-0.000610865,0,-0.000610865
124.7356108,-0.000610865,0,-0.00122173
124.7856108,0.00122173,-0.000610865,-0.00122173
124.8356108,-0.00122173,0.000610865,-0.000610865
124.8856108,0,0,-0.000610865
124.9356108,0,0,-0.000610865
124.9856108,-0.000610865,-0.00122173,-0.000610865
125.0356108,0.000610865,0,-0.00122173
125.0856108,0,0,-0.001832596
125.1356108,0.00122173,-0.00122173,0
125.1856108,0,0,-0.00122173
125.2356108,-0.00122173,0,-0.000610865
125.2856108,-0.000610865,0,-0.00122173
125.3356108,0,0,-0.00122173
125.3856108,0.001832596,-0.000610865,-0.001832596
125.4356108,-0.000610865,0,-0.00122173
125.4856108,0.000610865,0.00122173,-0.000610865
125.5356108,0,-0.000610865,-0.000610865
125.5856108,-0.00122173,0.00122173,0
125.6356108,0,0,-0.000610865
125.6856108,0.000610865,0.000610865,0
125.7356108,-0.001832596,-0.001832596,0
125.7856108,0.000610865,0.000610865,-0.000610865
125.8356108,-0.00122173,0.000610865,-0.001832596
125.8856108,-0.00122173,-0.000610865,0
125.9356108,0.000610865,0,0
125.9856108,0.001832596,0,0.000610865
126.0356108,-0.000610865,0,0
126.0856108,0.000610865,0.00122173,0
126.1356108,0.00122173,0.002443461,0
126.1856108,0,0.000610865,0.000610865
126.2356108,0.001832596,-0.000610865,0
126.2856108,0,0,-0.000610865
126.3356108,0,0,-0.001832596
126.3856108,0,0,-0.000610865
126.4356108,0,0.000610865,-0.000610865
126.4856108,0,0.00122173,-0.000610865
126.5356108,-0.00122173,0.000610865,0
126.5856108,-0.00122173,-0.00122173,-0.00122173
126.6356108,0,-0.000610865,0
126.6856108,0.000610865,0.00122173,-0.000610865
126.7356108,0,0,-0.000610865
126.7856108,-0.00122173,-0.000610865,0
126.8356108,0,0,0.000610865
126.8856108,-0.000610865,-0.000610865,0
126.9356108,0.00122173,-0.00122173,0
126.9856108,-0.000610865,-0.00122173,0
127.0356108,-0.000610865,-0.00122173,0.000610865
127.0856108,0,-0.00122173,-0.000610865
127.1356108,-0.000610865,0.00122173,-0.000610865
127.1856108,-0.000610865,-0.002443461,-0.000610865
127.2356108,0,0,0.001832596
127.2856108,0.000610865,0,0
127.3356108,-0.000610865,0.00122173,0.000610865
127.3856108,-0.000610865,0,0
127.4356108,0.000610865,0.000610865,-0.000610865
127.4856108,0.001832596,0,-0.000610865
127.5356108,-0.00122173,0.000610865,-0.000610865
127.5856108,0.000610865,0,0.000610865
127.6356108,0,-0.00122173,0.00122173
127.6856108,0.001832596,0,0
127.7356108,0,0.001832596,0
127.7856108,0.000610865,0,0.000610865
127.8356108,0.001832596,0.00122173,0
127.8856108,0.000610865,0.000610865,-0.000610865
127.9356108,0,-0.000610865,0
127.9856108,0.00122173,-0.000610865,0.000610865
128.0356108,-0.000610865,0,0
128.0856108,0.000610865,0,0
128.1356108,0.00122173,0,0
128.1856108,0.000610865,0,0
128.2356108,-0.000610865,0.000610865,-0.000610865
128.2856108,-0.001832596,-0.000610865,0
128.3356108,0.000610865,-0.001832596,0.000610865
128.3856108,0,0.000610865,-0.000610865
128.4356108,0.00122173,-0.00122173,-0.000610865
128.4856108,-0.00122173,0,0
128.5356108,0.000610865,0.000610865,0.000610865
128.5856108,0.001832596,0,0
128.6356108,0,-0.00122173,0.000610865
128.6856108,0.001832596,0,0
128.7356108,0,-0.000610865,0.000610865
128.7856108,0,0.00122173,-0.000610865
128.8356108,0.000610865,0.000610865,0
128.8856108,-0.00122173,0,0.000610865
128.9356108,0.001832596,0.00122173,0.000610865
128.9856108,0,0,0.000610865
129.0356108,0.000610865,0.00122173,0.000610865
129.0856108,-0.001832596,0,0
129.1356108,-0.00122173,-0.000610865,0
129.1856108,-0.000610865,-0.001832596,0
129.2356108,0.000610865,0.00122173,-0.000610865
129.2856108,0.00122173,0,-0.00122173
129.3356108,-0.00122173,0.000610865,0
129.3856108,-0.000610865,0.00122173,-0.000610865
129.4356108,-0.00122173,0.000610865,0.00122173
129.4856108,-0.00122173,0.002443461,0
129.5356108,0.00122173,0.000610865,0
129.5856108,0.000610865,-0.001832596,0
129.6356108,-0.000610865,0,-0.000610865
129.6856108,0.000610865,0.00122173,0
129.7356108,-0.000610865,0.002443461,0
129.7856108,-0.000610865,-0.000610865,0
129.8356108,0.000610865,0.000610865,0
129.8856108,0,0.000610865,-0.000610865
129.9356108,0.001832596,0.001832596,0
129.9856108,0.00122173,0.000610865,0
130.0356108,-0.00122173,-0.00122173,0
130.0856108,-0.001832596,0,-0.000610865
130.1356108,-0.00122173,0,0.000610865
130.1856108,0,0.00122173,-0.000610865
130.2356108,0.00122173,-0.000610865,0
130.2856108,0,0,0.000610865
130.3356108,0.00122173,0,-0.00122173
130.3856108,-0.000610865,0.00122173,-0.000610865
130.4356108,-0.00122173,0.000610865,0.000610865
130.4856108,0.00122173,0.00122173,0
130.5356108,-0.000610865,0.000610865,-0.000610865
130.5856108,0.000610865,0,0
130.6356108,0.002443461,-0.000610865,0
130.6856108,0.00122173,0,-0.000610865
130.7356108,0.000610865,0.00122173,0
130.7856108,0,0,-0.000610865
130.8356108,0.00122173,0.001832596,0.000610865
130.8856108,0.000610865,0.000610865,0.000610865
130.9356108,0,0,0.000610865
130.9856108,0.002443461,0,0
131.0356108,0,0.00122173,0
131.0856108,0,-0.000610865,-0.000610865
131.1356108,0,0,-0.000610865
131.1856108,0.000610865,0.000610865,-0.000610865
131.2356108,0.000610865,0.00122173,0.000610865
131.2856108,0,0,0
131.3356108,0,0,0
131.3856108,0.002443461,0,0
131.4356108,0,0.000610865,-0.000610865
131.4856108,0.000610865,0,-0.000610865
131.5356108,0,0,0
131.5856108,0.000610865,0,-0.000610865
131.6356108,0.000610865,-0.000610865,0
131.6856108,0.001832596,0,0
131.7356108,0,0.000610865,-0.000610865
131.7856108,0.00122173,0,0
131.8356108,0.000610865,-0.000610865,0
131.8856108,0.001832596,-0.000610865,0
131.9356108,0.000610865,-0.000610865,0
131.9856108,-0.000610865,-0.00122173,0
132.0356108,0.00122173,0.00122173,0
132.0856108,0.00122173,0.000610865,-0.000610865
132.1356108,0.001832596,0.000610865,0
132.1856108,0.00122173,-0.000610865,-0.00122173
132.2356108,-0.000610865,0.00122173,0.000610865
132.2856108,0.001832596,0.000610865,0
132.3356108,0.002443461,0,0.000610865
132.3856108,0.000610865,-0.000610865,0
132.4356108,0.00122173,0,-0.000610865
132.4856108,0.00122173,0.000610865,0
132.5356108,0.001832596,-0.00122173,-0.000610865
132.5856108,0.00122173,0.000610865,-0.000610865
132.6356108,-0.000610865,0,0
132.6856108,-0.000610865,0,-0.00122173
132.7356108,0,0,0
132.7856108,-0.000610865,0.000610865,0
132.8356108,0.001832596,0.000610865,0
132.8856108,0,0.001832596,0
132.9356108,0.001832596,-0.000610865,-0.00122173
132.9856108,0.000610865,0,0
133.0356108,0.000610865,0.000610865,-0.000610865
133.0856108,0.000610865,0.000610865,0.000610865
133.1356108,0,0.000610865,0.000610865
133.1856108,0.000610865,-0.000610865,-0.000610865
133.2356108,0.00122173,0,-0.000610865
133.2856108,0.000610865,0,-0.000610865
133.3356108,-0.000610865,0,0
133.3856108,-0.00122173,-0.000610865,-0.000610865
133.4356108,-0.001832596,0.000610865,-0.000610865
133.4856108,0,0.000610865,-0.00122173
133.5356108,0.000610865,0,-0.000610865
133.5856108,-0.000610865,0.000610865,0.000610865
133.6356108,-0.000610865,0.00122173,0
133.6856108,0.003054326,0,0.000610865
133.7356108,0.000610865,0.001832596,0.000610865
133.7856108,0.002443461,-0.00122173,-0.000610865
133.8356108,-0.001832596,-0.000610865,0.000610865
133.8856108,0.001832596,0.00122173,0
133.9356108,0.000610865,0,-0.000610865
133.9856108,0.000610865,-0.002443461,0.000610865
134.0356108,-0.00122173,0,-0.000610865
134.0856108,0.000610865,0,-0.000610865
134.1356108,-0.000610865,-0.000610865,0
134.1856108,0.001832596,0.000610865,0.000610865
134.2356108,0.001832596,0,-0.00122173
134.2856108,0,-0.000610865,0.000610865
134.3356108,0.001832596,0.000610865,0.000610865
134.3856108,0.00122173,0,0
134.4356108,-0.000610865,-0.000610865,0.000610865
134.4856108,-0.000610865,0.001832596,0.000610865
134.5356108,0,-0.001832596,-0.000610865
134.5856108,0,0,-0.00122173
134.6356108,0.000610865,0,0.000610865
134.6856108,-0.000610865,0.000610865,0.000610865
134.7356108,0,0.000610865,0
134.7856108,0.002443461,0,0
134.8356108,0.000610865,0.001832596,0.000610865
134.8856108,0.001832596,0.000610865,-0.000610865
134.9356108,0.000610865,0,-0.000610865
134.9856108,0,0.001832596,-0.000610865
135.0356108,0,0.000610865,-0.000610865
135.0856108,0,0.000610865,0
135.1356108,-0.00122173,-0.00122173,-0.001832596
135.1856108,0,-0.00122173,0
135.2356108,-0.000610865,0,0
135.2856108,0,0.000610865,-0.000610865
135.3356108,-0.00122173,0,-0.000610865
135.3856108,0.000610865,-0.000610865,0.000610865
135.4356108,0.00122173,0.001832596,-0.000610865
135.4856108,0,0.000610865,0
135.5356108,0.00122173,-0.000610865,-0.000610865
135.5856108,0,0.00122173,-0.000610865
135.6356108,-0.00122173,0.000610865,-0.00122173
135.6856108,0.000610865,0,0.000610865
135.7356108,-0.001832596,0.001832596,0.000610865
135.7856108,0,0,0.000610865
135.8356108,0.000610865,-0.00122173,0.000610865
135.8856108,0,0.000610865,0.000610865
135.9356108,0.000610865,0.00122173,0.000610865
135.9856108,0,0.00122173,-0.000610865
136.0356108,0.002443461,0.000610865,0
136.0856108,0,0.00122173,0
136.1356108,0.001832596,0.000610865,0.000610865
136.1856108,0,0.000610865,0
136.2356108,0,-0.000610865,-0.00122173
136.2856108,0.00122173,0,-0.000610865
136.3356108,0.000610865,0,0.00122173
136.3856108,0.00122173,0,-0.000610865
136.4356108,0,0.000610865,0.00122173
136.4856108,0.000610865,0.000610865,-0.000610865
136.5356108,0.00122173,-0.000610865,-0.000610865
136.5856108,0.000610865,-0.000610865,0
136.6356108,0,0.000610865,-0.00122173
136.6856108,0.000610865,-0.000610865,-0.000610865
136.7356108,0.000610865,0,0.000610865
136.7856108,0,0.000610865,-0.000610865
136.8356108,-0.000610865,0,0.000610865
136.8856108,0,0.000610865,0.00122173
136.9356108,0,0.000610865,-0.000610865
136.9856108,-0.000610865,0.00122173,-0.000610865
137.0356108,0,0.000610865,-0.000610865
137.0856108,0,0.000610865,0.000610865
137.1356108,0.001832596,0.000610865,0
137.1856108,0.000610865,0.001832596,0
137.2356108,-0.000610865,-0.000610865,-0.000610865
137.2856108,0,0,-0.000610865
137.3356108,0.001832596,0.00122173,-0.000610865
137.3856108,0,0,0
137.4356108,0,0,-0.000610865
137.4856108,0.001832596,0.000610865,-0.000610865
137.5356108,0.00122173,-0.000610865,0
137.5856108,0.000610865,-0.001832596,-0.000610865
137.6356108,0.00122173,-0.000610865,0
137.6856108,0.001832596,0.000610865,0
137.7356108,0.000610865,0.001832596,-0.00122173
137.7856108,-0.001832596,0,-0.000610865
137.8356108,0,0,-0.000610865
137.8856108,-0.00122173,-0.00122173,-0.00122173
137.9356108,0.000610865,0.000610865,-0.000610865
137.9856108,0.00122173,0.000610865,-0.000610865
138.0356108,0.002443461,0.00122173,-0.000610865
138.0856108,0.00122173,0.00122173,-0.000610865
138.1356108,0.000610865,0.00122173,0
138.1856108,-0.00122173,-0.000610865,-0.00122173
138.2356108,0,0.000610865,0
138.2856108,0.000610865,0,-0.001832596
138.3356108,0,-0.001832596,-0.00122173
138.3856108,0,0.000610865,-0.00122173
138.4356108,0.000610865,-0.000610865,0
138.4856108,0,0.001832596,-0.000610865
138.5356108,0.000610865,0,0
138.5856108,0,-0.000610865,-0.000610865
138.6356108,-0.000610865,0.00122173,-0.00122173
138.6856108,0,0,0
138.7356108,0.000610865,0,0
138.7856108,0.000610865,0,-0.00122173
138.8356108,0.000610865,0.000610865,-0.00122173
138.8856108,0,0,0
138.9356108,0,-0.000610865,0
138.9856108,0.000610865,0,-0.000610865
139.0356108,0.00122173,0.00122173,-0.000610865
139.0856108,-0.00122173,0.00122173,0
139.1356108,0,0.000610865,0.00122173
139.1856108,0,0.000610865,0.00122173
139.2356108,0.00122173,-0.000610865,-0.000610865
139.2856108,-0.000610865,-0.00122173,-0.000610865
139.3356108,0,0,-0.00122173
139.3856108,-0.000610865,0,0.000610865
139.4356108,0,0.00122173,0
139.4856108,0,-0.000610865,-0.000610865
139.5356108,0.00122173,0,-0.000610865
139.5856108,0,0.00122173,-0.000610865
139.6356108,0,-0.000610865,-0.000610865
139.6856108,0.001832596,0.002443461,-0.000610865
139.7356108,0.00122173,0,0.000610865
139.7856108,0.00122173,0.000610865,-0.000610865
139.8356108,0,0.001832596,-0.000610865
139.8856108,0.000610865,0,0
139.9356108,0,-0.000610865,0.000610865
139.9856108,0,-0.00122173,0
140.0356108,0.000610865,-0.00122173,0.000610865
140.0856108,0.00122173,0,0.000610865
140.1356108,0.000610865,-0.001832596,0
140.1856108,0.00122173,0.000610865,0
140.2356108,0.000610865,0.000610865,-0.001832596
140.2856108,0.001832596,0.000610865,0
140.3356108,0.00122173,-0.000610865,0
140.3856108,0.000610865,-0.000610865,0
140.4356108,0.00122173,0,0
140.4856108,-0.000610865,0.00122173,0
140.5356108,0,-0.000610865,-0.000610865
140.5856108,-0.000610865,0.000610865,-0.00122173
140.6356108,0.000610865,-0.000610865,-0.000610865
140.6856108,0,0,0
140.7356108,-0.000610865,0,0
140.7856108,0,0.000610865,0
140.8356108,0,0,0.000610865
140.8856108,-0.000610865,0.00122173,0
140.9356108,-0.000610865,0.000610865,0.000610865
140.9856108,0.000610865,-0.000610865,0
141.0356108,-0.00122173,0,0.00122173
141.0856108,0.000610865,0.00122173,-0.00122173
141.1356108,-0.00122173,0.00122173,0
141.1856108,-0.000610865,0.00122173,0
141.2356108,0.00122173,0.001832596,0
141.2856108,0,0.00122173,-0.000610865
141.3356108,0,0.000610865,-0.000610865
141.3856108,0.00122173,0.002443461,-0.001832596
141.4356108,0,0.002443461,0.000610865
141.4856108,0.00122173,0.000610865,-0.00122173
141.5356108,0.00122173,0.000610865,0
141.5856108,-0.000610865,-0.00122173,-0.000610865
141.6356108,0,0,0.000610865
141.6856108,-0.000610865,0.001832596,0.000610865
141.7356108,-0.000610865,0.000610865,0.000610865
141.7856108,0.000610865,0,-0.000610865
141.8356108,0,0,-0.000610865
141.8856108,0.000610865,-0.000610865,-0.000610865
141.9356108,0.000610865,0,-0.000610865
141.9856108,0.000610865,0,0.000610865
142.0356108,0,0.000610865,-0.000610865
142.0856108,0.000610865,-0.000610865,0
142.1356108,0,0,0.000610865
142.1856108,0.00122173,0.00122173,-0.000610865
142.2356108,-0.000610865,0.00122173,-0.000610865
142.2856108,-0.000610865,0.000610865,-0.000610865
142.3356108,-0.000610865,0.000610865,-0.00122173
142.3856108,-0.000610865,0,0.000610865
142.4356108,0.000610865,0.001832596,-0.000610865
142.4856108,0.000610865,-0.000610865,0.000610865
142.5356108,-0.00122173,0.00122173,0
142.5856108,0.000610865,0.001832596,-0.000610865
142.6356108,-0.000610865,0.00122173,0
142.6856108,-0.00122173,0,0
142.7356108,0,0.00122173,-0.000610865
142.7856108,0.001832596,-0.000610865,-0.000610865
142.8356108,0,0.001832596,-0.000610865
142.8856108,0.000610865,0,0
142.9356108,0,-0.00122173,0
142.9856108,-0.00122173,-0.000610865,-0.000610865
143.0356108,0,0.000610865,0.000610865
143.0856108,0.000610865,0,-0.00122173
143.1356108,-0.000610865,0,-0.000610865
143.1856108,0.000610865,0.000610865,0
143.2356108,-0.000610865,0,-0.00122173
143.2856108,0.000610865,0.000610865,0.000610865
143.3356108,-0.000610865,0,-0.000610865
143.3856108,0.002443461,0.000610865,-0.000610865
143.4356108,0.000610865,0.00122173,-0.000610865
143.4856108,-0.000610865,0,0.000610865
143.5356108,0.000610865,0.000610865,0.00122173
143.5856108,-0.001832596,0,-0.000610865
143.6356108,0,0.00122173,-0.000610865
143.6856108,0,0.00122173,0
143.7356108,0.000610865,-0.001832596,0.000610865
143.7856108,-0.000610865,0.00122173,-0.00122173
143.8356108,-0.000610865,0.00122173,-0.000610865
143.8856108,-0.000610865,-0.000610865,-0.000610865
143.9356108,0,0.001832596,0
143.9856108,0,-0.000610865,0
144.0356108,-0.00122173,0,0.000610865
144.0856108,0,0.001832596,-0.000610865
144.1356108,-0.000610865,0.000610865,-0.00122173
144.1856108,-0.00122173,-0.000610865,-0.00122173
144.2356108,-0.000610865,-0.00122173,-0.000610865
144.2856108,-0.000610865,0.000610865,0
144.3356108,0.000610865,0.000610865,0.000610865
144.3856108,0,0.00122173,0
144.4356108,0,0.000610865,0
144.4856108,0,0.00122173,0
144.5356108,0.000610865,0.00122173,0
144.5856108,-0.000610865,0.000610865,0
144.6356108,0.001832596,0,-0.000610865
144.6856108,0,-0.000610865,-0.000610865
144.7356108,0,-0.000610865,0.000610865
144.7856108,0.000610865,0.00122173,0
144.8356108,0.000610865,-0.000610865,0
144.8856108,0.000610865,-0.000610865,-0.00122173
144.9356108,-0.00122173,-0.000610865,-0.00122173
144.9856108,0.000610865,0.000610865,0
145.0356108,0,0.000610865,-0.000610865
145.0856108,0.000610865,0.001832596,-0.00122173
145.1356108,0,0,-0.000610865
145.1856108,-0.00122173,0.000610865,0
145.2356108,0.000610865,-0.00122173,0
145.2856108,-0.000610865,-0.000610865,0.000610865
145.3356108,0.000610865,0,0.000610865
145.3856108,-0.000610865,0.002443461,0
145.4356108,0.000610865,0,-0.000610865
145.4856108,-0.000610865,0.00122173,-0.000610865
145.5356108,0.000610865,0.000610865,0
145.5856108,0,-0.001832596,-0.00122173
145.6356108,0,0.000610865,0
145.6856108,0.000610865,0,-0.000610865
145.7356108,-0.00122173,-0.00122173,0.000610865
145.7856108,0.00122173,-0.000610865,0
145.8356108,0,-0.001832596,-0.000610865
145.8856108,0,0,-0.00122173
145.9356108,-0.000610865,0.000610865,0
145.9856108,0.000610865,0.000610865,-0.000610865
146.0356108,-0.000610865,0.00122173,-0.00122173
146.0856108,-0.000610865,0.000610865,0.000610865
146.1356108,-0.000610865,-0.000610865,0.000610865
146.1856108,0.00122173,-0.000610865,0
146.2356108,0.00122173,0,0
146.2856108,0.000610865,0,-0.000610865
146.3356108,0,0,-0.000610865
146.3856108,0.001832596,0.00122173,-0.000610865
146.4356108,0.001832596,0,0.000610865
146.4856108,0.000610865,0.00122173,0.00122173
146.5356108,0.000610865,0.000610865,-0.00122173
146.5856108,0.000610865,0.00122173,-0.000610865
146.6356108,-0.000610865,0,-0.000610865
146.6856108,0.001832596,0.00122173,0.000610865
146.7356108,0.00122173,0,0.000610865
146.7856108,0.001832596,-0.000610865,-0.000610865
146.8356108,-0.00122173,0.000610865,-0.000610865
146.8856108,0,-0.00122173,0
146.9356108,0.000610865,-0.00122173,0
146.9856108,0,0.001832596,0
147.0356108,0,0.00122173,0
147.0856108,0.001832596,0,0
147.1356108,0.001832596,-0.000610865,0.000610865
147.1856108,0,0.000610865,0
147.2356108,0.000610865,0.001832596,0
147.2856108,0.000610865,0.00122173,0
147.3356108,0.001832596,-0.000610865,0
147.3856108,0,0.003054326,0.000610865
147.4356108,0.00122173,0,-0.00122173
147.4856108,0,0,-0.00122173
147.5356108,0.00122173,0.000610865,0.000610865
147.5856108,0.002443461,-0.000610865,0
147.6356108,-0.000610865,0,0
147.6856108,-0.000610865,0.00122173,-0.000610865
147.7356108,0.00122173,-0.000610865,0
147.7856108,-0.000610865,0.00122173,0
147.8356108,0.000610865,0,-0.000610865
147.8856108,0.000610865,0.00122173,0
147.9356108,0.00122173,0.001832596,0
147.9856108,0.002443461,0.00122173,-0.00122173
148.0356108,-0.00122173,0.001832596,-0.000610865
148.0856108,0.002443461,0.00122173,0.000610865
148.1356108,0,0.00122173,-0.000610865
148.1856108,0.000610865,0,0.000610865
148.2356108,0.00122173,0.000610865,-0.000610865
148.2856108,-0.000610865,0.001832596,-0.000610865
148.3356108,0.000610865,0.000610865,0
148.3856108,0.001832596,0.000610865,0.00122173
148.4356108,0,0.000610865,-0.000610865
148.4856108,0.00122173,0.000610865,0
148.5356108,0.00122173,0,0
148.5856108,0.00122173,0.00122173,0.000610865
148.6356108,0.00122173,-0.00122173,-0.000610865
148.6856108,0.00122173,0.00122173,-0.000610865
