Time (s),Gyroscope x (rad/s),Gyroscope y (rad/s),Gyroscope z (rad/s)
0.062135936,-0.115453534,-0.020769419,-0.000610865
0.112135936,-0.04642576,-0.052534413,-0.009162978
0.162135936,-0.060475659,-0.01282817,-0.017715093
0.212135936,-0.0421497,-0.020158554,-0.007330383
0.262135936,-0.035430186,0.014660766,0.014660766
0.312135936,-0.009773844,-0.06169739,0.015271631
0.362135936,0.01282817,-0.022602014,0.018936822
0.412135936,-0.025045475,-0.036651913,0.008552114
0.462135936,0.012217305,0.001832596,0.009773844
0.512135936,-0.015882496,-0.003054326,0.032375857
0.562135936,-0.02321288,-0.010995574,0.03848451
0.612135936,-0.007941248,-0.031154128,0.009162978
0.662135936,-0.007941248,-0.026267206,0.032986723
0.712135936,-0.00122173,-0.025045475,0.002443461
0.762135936,0.003054326,-0.040317107,0.013439035
0.812135936,0.002443461,0.000610865,0.032375857
0.862135936,0.016493361,-0.033597589,0.031154128
0.912135936,-0.006719518,-0.021991149,0.021991149
0.962135936,0.009162978,-0.01038471,0.016493361
1.012135936,-0.01160644,-0.004276057,0.01038471
1.062135936,-0.003054326,0.004886922,0.021380283
1.112135936,0.00122173,0.004886922,0.017104227
1.162135936,-0.020158554,0.013439035,0.020158554
1.212135936,-0.013439035,-0.004886922,0.025045475
1.262135936,-0.004886922,-0.005497787,0.01160644
1.312135936,-0.007941248,0.009162978,-0.001832596
1.362135936,-0.044593163,-0.020158554,0.006719518
1.412135936,-0.016493361,0.001832596,0
1.462135936,0,-0.004276057,0.006108652
1.512135936,-0.01282817,-0.006108652,-0.003665192
1.562135936,-0.019547688,-0.010995574,-0.001832596
1.612135936,-0.01160644,0.013439035,-0.007941248
1.662135936,0.013439035,0.014660766,0.002443461
1.712135936,-0.020769419,0.01038471,0.00122173
1.762135936,-0.017715093,-0.014660766,0.005497787
1.812135936,0.020158554,-0.003054326,0.006108652
1.862135936,-0.007330383,-0.024434609,0.030543262
1.912135936,0.02687807,-0.022602014,0.036651913
1.962135936,0.053145275,-0.024434609,0.0421497
2.012135936,0.124616511,0.057421334,0.063529983
2.062135936,0.032375857,0.014660766,-0.015882496
2.112135936,0.094684117,0.17715092,0.0421497
2.162135936,0.045204028,0,-0.064751714
2.212135936,-0.018936822,-0.006108652,-0.070249505
2.262135936,-0.066584311,-0.077579886,-0.090408057
2.312135936,-0.094073251,0.015882496,-0.106290549
2.362135936,-0.099571034,0.01282817,-0.205861583
2.412135936,0.089186326,0.077579886,-0.135612086
2.462135936,0.025045475,-0.009773844,-0.09590584
2.512135936,-0.11911872,-0.002443461,-0.091629788
2.562135936,-0.263893783,-0.116675265,-0.1423316
2.612135936,-0.072692961,-0.009162978,-0.112399206
2.662135936,0.01282817,0.095294975,0.069027774
2.712135936,-0.114231803,0.05375614,0.11911872
2.762135936,-0.064751714,-0.036041051,0.101403631
2.812135936,0.014049901,-0.02687807,0.155159771
2.862135936,0.194255143,-0.047647487,0.159435824
2.912135936,0.21197024,0.086131997,0.12339478
2.962135936,0.115453534,0.187535629,0.060475659
3.012135936,0.439212114,0.101403631,0.021380283
3.062135936,0.26816985,0.059253927,0.205861583
3.112135936,0.014049901,-0.0580322,0.233961389
3.162135936,-0.035430186,-0.009773844,0.271224171
3.212135936,-0.075136423,-0.025656341,0.128281698
3.262135936,-0.295047909,0.096516706,0.259617716
3.312135936,-0.262672067,0.027488936,0.181426972
3.362135936,-0.149661988,0.065973446,0.160046697
3.412135936,-0.120951317,0.028099801,0.073303826
3.462135936,0.084910266,-0.037262779,0.008552114
3.512135936,0.120951317,0.030543262,-0.023823744
3.562135936,0.097738437,0.02687807,-0.054367006
3.612135936,0.338419348,0.003054326,-0.21013765
3.662135936,0.350636661,0.014660766,-0.397673279
3.712135936,0.340251952,0.006108652,-0.367130011
3.762135936,0.110566609,0.093462385,-0.047036625
3.812135936,0.142942473,0,0.039095376
3.862135936,-0.382401645,-0.059253927,-0.056199603
3.912135936,-0.229685336,-0.001832596,-0.083077677
3.962135936,-0.132557765,0.014660766,0.029932396
4.012135936,-0.149051115,-0.096516706,0.092240654
4.062135936,-0.039095376,0.008552114,0.15393804
4.112135936,-0.047036625,-0.1001819,0.222965822
4.162135936,0.051312681,0.062308256,0.257174254
4.212135936,0.243124366,0.05009095,0.04642576
4.262135936,-0.086742863,-0.009162978,0.170431405
4.312135936,-0.250454754,0.05375614,0.288328409
4.362135936,-0.263282925,-0.051923547,-0.04642576
4.412135936,-0.332310706,-0.020158554,0.067195177
4.462135936,-0.376293004,-0.051312681,0.184481308
4.512135936,-0.031764992,-0.132557765,0.111177474
4.562135936,-0.021380283,-0.083688542,0.036041051
4.612135936,0.060475659,-0.0580322,-0.043982297
4.662135936,0.160046697,0.100792766,-0.097738437
4.712135936,0.248011291,0.015271631,-0.120951317
4.762135936,0.538172305,0.086742863,-0.229074463
4.812135936,-0.13072516,-0.030543262,-0.255952537
4.862135936,0.45692721,0.157603234,0.074525557
4.912135936,0.004886922,0.032375857,0.1160644
4.962135936,-0.339641064,0.006108652,-0.051312681
5.012135936,-0.141109869,0.017715093,-0.147829384
5.062135936,-0.051312681,0.062308256,-0.019547688
5.112135936,0.026267206,-0.032986723,-0.032986723
5.162135936,-0.03848451,-0.015882496,0.034208454
5.212135936,0.08124508,-0.043982297,0.110566609
5.262135936,0.161879286,0.043982297,0.18875736
5.312135936,0.285884947,-0.035430186,-0.134390354
5.362135936,-0.599869669,0.044593163,0.04642576
5.412135936,0.302989155,0.069027774,0.1001819
5.462135936,-0.162490159,-0.070249505,-0.032986723
5.512135936,-0.441044718,-0.112399206,0.079412483
5.562135936,-0.043982297,-0.157603234,0.032375857
5.612135936,0.157603234,-0.1001819,0.032375857
5.662135936,0.183870435,-0.055588737,0.024434609
5.712135936,0.160046697,0.091018923,-0.048869219
5.762135936,0.329256356,0.043982297,-0.197309479
5.812135936,0.295047909,0.106290549,-0.105068825
5.862135936,0.27488935,0.006719518,-0.485637873
5.912135936,-0.324980319,0.289550126,0.15393804
5.962135936,0.364686549,-0.099571034,0.115453534
6.012135936,-0.156381503,0.052534413,0.109955743
6.062135936,-0.385455966,0.062919118,-0.127670839
6.112135936,-0.083077677,-0.061086524,-0.056199603
6.162135936,-0.026267206,0.024434609,-0.01038471
6.212135936,0.1160644,-0.271224171,0.06536258
6.262135936,0.157603234,0.04642576,0.0580322
6.312135936,0.42394048,-0.155159771,0.091629788
6.362135936,0.348804057,0.108123146,-0.047036625
6.412135936,0.202196389,-0.308486939,-0.029321533
6.462135936,0.05375614,-0.009162978,0.408057988
6.512135936,0.08124508,-0.03481932,-0.017104227
6.562135936,-0.51984632,-0.017715093,-0.094073251
6.612135936,-0.546724379,0.093462385,-0.081855945
6.662135936,0.007941248,-0.065973446,-0.044593163
6.712135936,0.092240654,-0.062308256,0.007941248
6.762135936,0.062308256,0.056810468,-0.106290549
6.812135936,0.489303052,0.238848314,-0.373238653
6.862135936,0.175318331,0.339641064,-0.166766211
6.912135936,0.46364671,-0.045204028,-0.415388376
6.962135936,-0.762359798,0.224798411,0.300545692
7.012135936,0.307265222,-0.208915919,0.134390354
7.062135936,0.01038471,-0.007330383,0.207083315
7.112135936,-0.372627795,0.006719518,-0.052534413
7.162135936,-0.039706241,-0.069027774,-0.103236228
7.212135936,0.018936822,-0.054977871,-0.091018923
7.262135936,0.075136423,-0.137444675,-0.021991149
7.312135936,-0.008552114,-0.025045475,-0.040927973
7.362135936,-0.007941248,-0.070860371,0.014049901
7.412135936,0.225409269,0.029321533,0.102625363
7.462135936,-0.346971452,-0.148440257,0.105068825
7.512135936,-0.158214092,0.249843881,0.017104227
7.562135936,0.101403631,-0.077579886,0.03848451
7.612135936,-0.193644285,0.025656341,0.183259577
7.662135936,-0.2003638,-0.135001212,0.214413703
7.712135936,0.000610865,-0.125838235,0.150272846
7.762135936,-0.124005646,-0.054977871,0.047036625
7.812135936,-0.110566609,0.075136423,0.009773844
7.862135936,0.324369431,0.04642576,-0.080634214
7.912135936,0.115453534,0.121562183,-0.085521132
7.962135936,0.507629037,-0.076358154,-0.619417369
8.012135936,0.061086524,0.010995574,-0.323147714
8.062135936,0.0842994,0.007941248,0.174096599
8.112135936,-0.05375614,-0.149661988,0.091629788
8.162135936,-0.48685959,-0.160657555,-0.075747289
8.212135936,-0.177761793,-0.016493361,-0.148440257
8.262135936,-0.180205241,0.045204028,-0.044593163
8.312135936,0.124616511,0.071471237,-0.025045475
8.362135936,-0.092240654,0.0842994,0.095294975
8.412135936,0.158824965,-0.116675265,0.150883719
8.462135936,0.276111096,0.230296195,0.183259577
8.512135936,-0.043982297,-0.140499011,0.260839462
8.562135936,-0.422718763,-0.014049901,0.224798411
8.612135936,0.149661988,-0.059864793,0.102014497
8.662135936,-0.538172305,0.067806043,0.172874868
8.712135936,-0.242513508,-0.031154128,0.129503429
8.762135936,0.103236228,-0.191811681,0.109344877
8.812135936,-0.056199603,-0.101403631,0.073303826
8.862135936,0.096516706,-0.048869219,-0.003665192
8.912135936,0.072692961,0.102625363,-0.062308256
8.962135936,0.254119933,0.097738437,-0.195476875
9.012135936,0.389121175,-0.106290549,-0.506407261
9.062135936,0.178372651,-0.114842668,-0.420886159
9.112135936,0.06963864,0.244346097,0.224187538
9.162135936,-0.179594383,-0.182648704,0.109955743
9.212135936,-0.597426236,0.0580322,-0.060475659
9.262135936,-0.292604446,-0.008552114,-0.230296195
9.312135936,0.009773844,0.181426972,-0.103236228
9.362135936,-0.059253927,0.138666406,0.021991149
9.412135936,0.049480084,-0.01160644,0.039706241
9.462135936,0.114231803,-0.025656341,0.089797191
9.512135936,0.173485726,0.057421334,0.06536258
9.562135936,0.339641064,-0.067806043,-0.043982297
9.612135936,-0.486248732,0.06963864,0.362853944
9.662135936,0.202196389,0.147218525,0.299323976
9.712135936,-0.233961389,-0.043371432,0.193644285
9.762135936,-0.479529232,0.047647487,0.182648704
9.812135936,-0.229074463,-0.102625363,0.172263995
9.862135936,0.108123146,-0.228463605,0.150272846
9.912135936,0.067195177,-0.11178834,0.119729586
9.962135936,0.095294975,-0.004886922,-0.054977871
10.01213594,0.276721954,-0.02687807,-0.178372651
10.06213594,0.156381503,0.240680903,-0.252898216
10.11213594,0.409890592,-0.082466811,-0.432492584
10.16213594,-0.113620937,0.284052342,0.185703039
10.21213594,0.118507855,-0.211359382,0.158214092
10.26213594,-0.359188765,-0.009773844,0.05375614
10.31213594,-0.390953749,-0.093462385,-0.29810223
10.36213594,-0.103847094,0.02687807,-0.270613313
10.41213594,-0.091018923,0.136222944,-0.078801617
10.46213594,0.025045475,0.043982297,0.040927973
10.51213594,0.253509074,0.028099801,0.246178687
10.56213594,0.020158554,-0.0842994,0.109955743
10.61213594,0.287106663,0.072692961,-0.064140849
10.66213594,-0.273667634,0.032375857,0.21197024
10.71213594,-0.065973446,0.125838235,0.263893783
10.76213594,-0.042760566,-0.160046697,0.032375857
10.81213594,-0.415999234,-0.036041051,0.0842994
10.86213594,-0.031764992,-0.149661988,0.184481308
10.91213594,0.009162978,-0.083688542,0.170431405
10.96213594,0.027488936,-0.078190751,0.124005646
11.01213594,0.11911872,0.013439035,-0.031154128
11.06213594,0.248622149,-0.057421334,-0.172263995
11.11213594,0.093462385,0.025045475,-0.219911486
11.16213594,0.546724379,-0.147218525,-0.465479314
11.21213594,-0.285884947,-0.239459172,-0.312152147
11.26213594,0.27488935,0.245567828,0.224187538
11.31213594,-0.034208454,-0.045204028,0.078190751
11.36213594,-0.57604593,0.138666406,-0.125838235
11.41213594,-0.251065612,0.238237441,-0.248622149
11.46213594,-0.138666406,0.240070045,-0.119729586
11.51213594,-0.06963864,0.101403631,-0.037262779
11.56213594,-0.02687807,0.069027774,0.0842994
11.61213594,0.09285152,0.001832596,0.155770645
11.66213594,0.124616511,0.06536258,0.08857546
11.71213594,0.262061179,-0.026267206,-0.077579886
11.76213594,-0.196698606,-0.151494578,0.433103472
11.81213594,0.049480084,0.105679691,0.383623362
11.86213594,-0.222354949,-0.008552114,0.056810468
11.91213594,-0.310930401,-0.098960169,-0.056199603
11.96213594,-0.024434609,-0.115453534,0.045204028
12.01213594,0.040927973,-0.151494578,0.090408057
12.06213594,-0.021380283,-0.141109869,0.016493361
12.11213594,-0.108123146,0.000610865,-0.156992361
12.16213594,0.229074463,-0.042760566,-0.240070045
12.21213594,0.365908295,0.193644285,-0.313373864
12.26213594,0.542448342,-0.050701816,-0.414166629
12.31213594,-0.372627795,0.322536856,0.295658767
12.36213594,0.270613313,0.003054326,0.145996794
12.41213594,-0.430049121,0.089797191,0.094684117
12.46213594,-0.299323976,-0.021991149,-0.204028994
12.51213594,-0.07696902,0.036651913,-0.126449108
12.56213594,0.084910266,0.017715093,-0.079412483
12.61213594,0.045204028,-0.035430186,-0.017715093
12.66213594,0.161879286,-0.008552114,0.099571034
12.71213594,0.28160888,0.028099801,0.146607652
12.76213594,0.294437051,0.105068825,-0.05009095
12.81213594,0.455705464,-0.098349303,-0.075747289
12.86213594,0.370184332,0.064140849,0.758694649
12.91213594,-0.571159005,-0.043371432,0.024434609
12.96213594,-0.350025773,-0.128892571,-0.203418121
13.01213594,-0.426383942,0.048258353,0.096516706
13.06213594,0.028710667,-0.158824965,0.1160644
13.11213594,0.027488936,-0.108734012,0.106901415
13.16213594,-0.072692961,-0.087353729,-0.183870435
13.21213594,0.306043476,0.087353729,-0.182037845
13.26213594,0.145996794,0.029321533,-0.293215305
13.31213594,0.306654364,-0.086131997,-0.509461641
13.36213594,-0.155770645,0.080634214,-0.031154128
13.41213594,0.390342891,0.111177474,0.113010071
13.46213594,-0.155770645,-0.013439035,0.059253927
13.51213594,-0.365297407,-0.085521132,-0.202807263
13.56213594,-0.033597589,-0.09590584,-0.265726388
13.61213594,0.102014497,0.001832596,-0.050701816
13.66213594,0.183870435,-0.120340452,-0.055588737
13.71213594,0.050701816,0.031764992,0.141720742
13.76213594,-0.176540062,0.057421334,0.205861583
13.81213594,0.145996794,0.067195177,0.136222944
13.86213594,-0.078801617,-0.086131997,-0.023823744
13.91213594,-0.148440257,-0.100792766,0.270002425
13.96213594,0.335975885,0.064140849,0.097127572
14.01213594,-0.442877293,-0.185092166,-0.026267206
14.06213594,-0.339641064,0.085521132,0.022602014
14.11213594,-0.024434609,-0.06536258,0.029321533
14.16213594,-0.048258353,0.00122173,0.042760566
14.21213594,-0.17715092,-0.082466811,-0.087964594
14.26213594,0.238848314,-0.1160644,-0.141109869
14.31213594,0.119729586,0.235793978,0.017715093
14.36213594,0.416610092,-0.110566609,-0.36102137
14.41213594,-0.208305046,0.136833817,-0.398284137
14.46213594,0.42394048,0.259617716,-0.064751714
14.51213594,0.336586744,0.183259577,-0.138055548
14.56213594,-0.207083315,-0.242513508,-0.169820532
14.61213594,-0.371406078,-0.299323976,-0.207083315
14.66213594,0.147829384,-0.067195177,-0.179594383
14.71213594,-0.040317107,0.0421497,-0.025045475
14.76213594,0.002443461,-0.03481932,0.101403631
14.81213594,-0.099571034,0.021991149,0.233961389
14.86213594,0.145385921,0.228463605,0.268780708
14.91213594,0.163101018,-0.028710667,-0.022602014
14.96213594,-0.034208454,-0.10751228,0.213191971
15.01213594,0.369573474,-0.203418121,0.602923989
15.06213594,-0.742201269,-0.09590584,0.163711891
15.11213594,-0.379958183,-0.08857546,0.040317107
15.16213594,-0.394618958,-0.110566609,0.08857546
15.21213594,-0.021380283,-0.145385921,0.010995574
15.26213594,-0.059253927,-0.113620937,0.002443461
15.31213594,0.120340452,-0.037873644,-0.199142069
15.36213594,0.298713118,-0.006719518,-0.178372651
15.41213594,0.360410482,0.102014497,-0.393397212
15.46213594,0.464868456,0.075747289,-0.576656818
15.51213594,-0.086131997,0.295047909,-0.203418121
15.56213594,0.271224171,0.151494578,0.135612086
15.61213594,-0.153327182,-0.014049901,0.189979091
15.66213594,-0.238237441,-0.018936822,0.05375614
15.71213594,-0.130114302,-0.016493361,-0.092240654
15.76213594,0.085521132,0.062919118,-0.056199603
15.81213594,-0.077579886,-0.01282817,0.031764992
15.86213594,-0.033597589,0.057421334,0.076358154
15.91213594,-0.066584311,-0.003054326,0.152716309
15.96213594,0.326812893,0.021380283,0.102014497
16.01213594,0.302989155,0.005497787,-0.054367006
16.06213594,-0.185092166,-0.064140849,0.252287358
16.11213594,0.167377085,0.005497787,0.087353729
16.16213594,-0.366519153,-0.06169739,0.018325957
16.21213594,-0.317039073,0.017104227,0.133779496
16.26213594,0.003665192,-0.153327182,0.128281698
16.31213594,0.07696902,-0.13072516,0.099571034
16.36213594,0.139888138,-0.106290549,0.018936822
16.41213594,0.141720742,0.079412483,-0.068416908
16.46213594,0.333532423,-0.039706241,-0.228463605
16.51213594,0.30482176,0.193033412,-0.29810223
16.56213594,0.48014009,-0.031764992,-0.594371855
16.61213594,-0.078190751,0.22357668,0.108123146
16.66213594,0.279165417,-0.139888138,0.149051115
16.71213594,-0.324980319,0.072082102,0.089186326
16.76213594,-0.442877293,0.005497787,-0.150272846
16.81213594,-0.098349303,0.080634214,-0.100792766
16.86213594,-0.026267206,0.062308256,-0.035430186
16.91213594,0.036041051,0.028099801,0.032986723
16.96213594,-0.021991149,-0.027488936,0.149051115
17.01213594,0.05375614,-0.070249505,0.122783914
17.06213594,0.204028994,0.02321288,-0.003665192
17.11213594,0.486248732,-0.101403631,0.135612086
17.16213594,-0.168598801,0.013439035,0.491746515
17.21213594,-0.147218525,0.000610865,0.007941248
17.26213594,-0.528398454,-0.009773844,-0.041538838
17.31213594,-0.379958183,-0.096516706,0.008552114
17.36213594,0.064751714,-0.185092166,-0.009773844
17.41213594,0.024434609,-0.172874868,-0.009162978
17.46213594,-0.032375857,-0.004886922,-0.11911872
17.51213594,0.215024561,0.050701816,-0.215635434
17.56213594,0.204639852,0.251065612,-0.197309479
17.61213594,0.483194411,0.051312681,-0.416610092
17.66213594,-0.580932856,0.415388376,0.035430186
17.71213594,0.411723167,-0.133168623,-0.073914692
17.76213594,-0.207694188,-0.008552114,0.094073251
17.81213594,-0.445931643,-0.015882496,-0.106901415
17.86213594,-0.137444675,0.003665192,-0.03848451
17.91213594,0.097127572,-0.024434609,-0.01038471
17.96213594,-0.072082102,-0.025656341,0.1001819
18.01213594,-0.1001819,-0.069027774,0.054367006
18.06213594,0.10445796,-0.082466811,0.070249505
18.11213594,0.248011291,-0.074525557,0.121562183
18.16213594,-0.009773844,-0.045814894,0.25167647
18.21213594,-0.467311919,0.04642576,0.173485726
18.26213594,0.478918344,-0.068416908,0.039095376
18.31213594,-0.386066824,0.027488936,0.219300628
18.36213594,-0.197309479,0.007941248,0.242513508
18.41213594,0.230296195,-0.087353729,0.15393804
18.46213594,0.142942473,-0.039706241,0.105068825
18.51213594,-0.015271631,0.069027774,-0.019547688
18.56213594,0.061086524,-0.109955743,-0.182648704
18.61213594,0.049480084,-0.040927973,-0.149051115
18.66213594,0.549167872,-0.023823744,-0.260228604
18.71213594,-0.058643065,0.048869219,-0.197920337
18.76213594,0.17898351,0.124616511,0.047647487
18.81213594,0.124005646,-0.066584311,-0.014049901
18.86213594,-0.540615737,0.029932396,-0.007330383
18.91213594,-0.337197602,0.153327182,-0.139277279
18.96213594,0.138055548,0.200974673,-0.1423316
19.01213594,0.129503429,-0.003665192,-0.048258353
19.06213594,0.004276057,-0.110566609,0.002443461
19.11213594,0.108734012,-0.0842994,0.167987943
19.16213594,0.323147714,-0.014049901,0.109955743
19.21213594,0.129503429,-0.093462385,0.060475659
19.26213594,-0.846659243,-0.026267206,0.066584311
19.31213594,0.632856369,-0.051312681,0.03848451
19.36213594,-0.212581098,-0.10751228,0.090408057
19.41213594,-0.361632228,0.016493361,0.210748509
19.46213594,0.034208454,-0.063529983,0.086742863
19.51213594,-0.037262779,-0.03848451,-0.057421334
19.56213594,-0.214413703,0.05375614,-0.1423316
19.61213594,0.072692961,0.039095376,-0.163101018
19.66213594,0.346360594,-0.035430186,-0.2003638
19.71213594,0.312763006,0.047647487,-0.243124366
19.76213594,0.483194411,-0.032375857,-0.483805269
19.81213594,0.032375857,0.226020142,-0.070860371
19.86213594,0.36774087,-0.122173049,0.06169739
19.91213594,-0.348193198,0.075136423,0.140499011
19.96213594,-0.469755381,0.02321288,-0.064140849
20.01213594,-0.056810468,0.062919118,-0.111177474
20.06213594,-0.138055548,0.076358154,-0.069027774
20.11213594,-0.069027774,-0.00122173,-0.029932396
20.16213594,-0.018325957,0.054367006,0.052534413
20.21213594,-0.067806043,0.01160644,0.080023348
20.26213594,0.257785142,-0.003665192,0.055588737
20.31213594,0.101403631,-0.000610865,-0.01282817
20.36213594,-0.577267647,0.048258353,0.219911486
20.41213594,0.261450321,-0.062308256,0.084910266
20.46213594,-0.35430184,-0.094073251,0.125227377
20.51213594,-0.295047909,-0.178372651,0.094684117
20.56213594,0.025656341,-0.192422554,0.109344877
20.61213594,0.035430186,-0.169820532,0.030543262
20.66213594,-0.053145275,-0.014660766,-0.025045475
20.71213594,0.185703039,0.062308256,-0.062308256
20.76213594,0.403781921,-0.096516706,-0.106901415
20.81213594,0.395229816,0.090408057,-0.060475659
20.86213594,0.004886922,0.022602014,-0.326202035
20.91213594,-0.059864793,0.287106663,0.072692961
20.96213594,0.536950529,-0.080634214,-0.08124508
21.01213594,-0.137444675,0.095294975,0.021380283
21.06213594,-0.186313897,0.045204028,-0.183870435
21.11213594,-0.000610865,0.001832596,-0.119729586
21.16213594,-0.063529983,0.026267206,-0.016493361
21.21213594,-0.040927973,-0.064751714,0.018936822
21.26213594,-0.079412483,0.045204028,0.093462385
21.31213594,0.153327182,-0.023823744,0.150883719
21.36213594,0.331699818,0.004276057,0.064751714
21.41213594,0.098349303,-0.059253927,0.154548913
21.46213594,-0.122783914,0.029321533,0.257785142
21.51213594,0.047036625,-0.035430186,-0.028710667
21.56213594,-0.561996043,0.025045475,-0.051312681
21.61213594,-0.172874868,-0.067195177,-0.03848451
21.66213594,0.085521132,-0.133779496,0.02321288
21.71213594,-0.005497787,-0.029932396,0.024434609
21.76213594,-0.051312681,-0.054977871,-0.055588737
21.81213594,0.029321533,0.124005646,-0.221133217
21.86213594,0.207694188,0.126449108,-0.141720742
21.91213594,0.585208893,-0.031154128,-0.434325188
21.96213594,-0.269391567,0.309097827,0.022602014
22.01213594,0.362243086,-0.006719518,0.051312681
22.06213594,0.008552114,-0.03481932,0.075136423
22.11213594,-0.538172305,-0.029932396,-0.068416908
22.16213594,-0.119729586,0.108123146,-0.185703039
22.21213594,0.027488936,0.080023348,-0.058643065
22.26213594,-0.034208454,0.006719518,0.018936822
22.31213594,-0.017715093,-0.075136423,0.177761793
22.36213594,0.293826193,-0.182037845,0.213191971
22.41213594,0.174707457,-0.00122173,0.288328409
22.46213594,0.444709897,-0.110566609,0.120340452
22.51213594,-0.534507096,-0.008552114,0.28160888
22.56213594,0.403171063,-0.072692961,0.004276057
22.61213594,-0.412334055,-0.062308256,-0.022602014
22.66213594,-0.5497787,0.031764992,-0.059864793
22.71213594,-0.127670839,-0.108123146,0.004886922
22.76213594,-0.092240654,-0.025045475,-0.036041051
22.81213594,-0.078801617,-0.0421497,-0.1423316
22.86213594,0.096516706,0.080023348,-0.276721954
22.91213594,0.217468023,0.072692961,-0.273667634
22.96213594,0.345138878,0.11178834,-0.360410482
23.01213594,0.015882496,0.148440257,-0.400116742
23.06213594,0.002443461,0.150272846,0.155770645
23.11213594,0.522900641,-0.228463605,0.014049901
23.16213594,-0.256563395,-0.083688542,0.109344877
23.21213594,-0.144164205,-0.037262779,-0.114231803
23.26213594,-0.067806043,-0.012217305,-0.023823744
23.31213594,0.078801617,0.053145275,0.067806043
23.36213594,-0.182037845,0.015271631,0.160046697
23.41213594,-0.078190751,0.06169739,0.181426972
23.46213594,0.057421334,0.050701816,0.161879286
23.51213594,0.205250725,0.045204028,0.073303826
23.56213594,0.164322749,-0.105068825,0.263282925
23.61213594,-0.241902635,-0.140499011,0.320704252
23.66213594,-0.034208454,-0.051312681,0.009162978
23.71213594,-0.455094606,-0.060475659,0.05375614
23.76213594,-0.15393804,-0.099571034,0.057421334
23.81213594,-0.03481932,-0.177761793,0.029932396
23.86213594,0.023823744,-0.09285152,-0.004276057
23.91213594,-0.109344877,0.049480084,-0.13072516
23.96213594,0.191811681,0.095294975,-0.21197024
24.01213594,0.228463605,0.1160644,-0.258396
24.06213594,0.399505884,0.037873644,-0.411112309
24.11213594,-0.483805269,0.289550126,-0.043371432
24.16213594,0.285274059,0.001832596,-0.070860371
24.21213594,-0.310319543,0.085521132,0.033597589
24.26213594,-0.231517926,0.043982297,-0.120340452
24.31213594,-0.089797191,0.040317107,-0.063529983
24.36213594,0.06963864,0.031764992,-0.016493361
24.41213594,0.029321533,-0.125838235,0.118507855
24.46213594,0.067195177,-0.076358154,0.1160644
24.51213594,0.084910266,0.03481932,0.248622149
24.56213594,0.34758231,-0.039095376,0.134390354
24.61213594,0.0580322,0.075747289,0.122173049
24.66213594,-0.348193198,-0.068416908,0.252898216
24.71213594,0.33108896,-0.116675265,0.098960169
24.76213594,-0.313373864,-0.091018923,0.039095376
24.81213594,-0.288939267,0.009773844,0.06169739
24.86213594,0.098349303,-0.157603234,0.066584311
24.91213594,-0.047036625,-0.043982297,0.041538838
24.96213594,0.005497787,-0.021991149,-0.09285152
25.01213594,0.302378297,0.066584311,-0.149661988
25.06213594,0.072082102,0.079412483,-0.097127572
25.11213594,0.419664413,-0.053145275,-0.444709897
25.16213594,-0.015271631,0.094684117,-0.33108896
25.21213594,0.318871647,0.141109869,0.154548913
25.26213594,0.240070045,-0.106290549,0.109955743
25.31213594,-0.491746515,-0.02321288,0.103236228
25.36213594,-0.237015709,0.070860371,-0.122783914
25.41213594,-0.034208454,0.100792766,-0.003665192
25.46213594,0.0421497,0.086742863,0.029321533
25.51213594,-0.113010071,-0.008552114,0.099571034
25.56213594,-0.061086524,0.013439035,0.19058995
25.61213594,0.026267206,0.051312681,0.201585531
25.66213594,0.294437051,-0.014049901,-0.064140849
25.71213594,-0.191811681,-0.029932396,0.226631001
25.76213594,0.19058995,-0.080023348,0.285884947
25.81213594,-0.045814894,-0.156992361,0.014049901
25.86213594,-0.590095818,-0.071471237,-0.014049901
25.91213594,-0.21013765,-0.004886922,-0.009162978
25.96213594,0.197920337,-0.134390354,0.048869219
26.01213594,0.059864793,-0.05009095,0.027488936
26.06213594,0.064751714,-0.001832596,-0.169209674
26.11213594,0.312152147,0.062919118,-0.232739657
26.16213594,0.110566609,0.001832596,-0.368962616
26.21213594,0.352469236,-0.062919118,-0.657290995
26.26213594,-0.041538838,0.241902635,-0.149661988
26.31213594,0.169209674,-0.167987943,0.153327182
26.36213594,-0.341473669,-0.003665192,0.224187538
26.41213594,-0.509461641,0.029932396,0.003665192
26.46213594,-0.094684117,0.099571034,-0.082466811
26.51213594,0.03481932,0.103847094,0.007941248
26.56213594,0.01160644,0.030543262,0.06536258
26.61213594,-0.027488936,0.060475659,0.218078896
26.66213594,0.07696902,0.004276057,0.2003638
26.71213594,0.137444675,0.010995574,0.174096599
26.76213594,0.227852732,-0.035430186,0.160657555
26.81213594,-0.395840675,-0.028710667,0.335365027
26.86213594,0.475864023,-0.066584311,0.037873644
26.91213594,-0.412334055,-0.040927973,0.025045475
26.96213594,-0.52656585,0.014049901,-0.00122173
27.01213594,-0.045204028,-0.077579886,-0.007941248
27.06213594,0.09285152,-0.145385921,0.041538838
27.11213594,0.111177474,-0.078801617,-0.06169739
27.16213594,0.043371432,-0.080023348,-0.106290549
27.21213594,0.163711891,0.033597589,-0.063529983
27.26213594,0.4007276,-0.001832596,-0.290160984
27.31213594,-0.33108896,0.045204028,-0.116675265
27.36213594,0.435546935,0.065973446,0.124005646
27.41213594,0.145996794,0.024434609,0.020158554
27.46213594,-0.447764218,0.031154128,-0.072692961
27.51213594,-0.322536856,0.050701816,-0.164322749
27.56213594,0.071471237,0.05375614,-0.049480084
27.61213594,0.075747289,-0.06963864,0.072082102
27.66213594,0.08857546,0.01038471,0.074525557
27.71213594,0.062308256,0.043982297,0.168598801
27.76213594,0.062919118,0.0421497,0.150883719
27.81213594,-0.00122173,-0.06169739,0.010995574
27.86213594,-0.670119166,-0.099571034,-0.000610865
27.91213594,0.44043383,0.070249505,0.048258353
27.96213594,-0.124005646,-0.105068825,0.064140849
28.01213594,-0.409890592,0.001832596,0.172263995
28.06213594,-0.097127572,-0.080023348,0.149661988
28.11213594,-0.015271631,-0.09590584,0.059253927
28.16213594,0.05375614,-0.084910266,-0.048258353
28.21213594,0.021380283,0.053145275,-0.117896989
28.26213594,0.382401645,-0.003665192,-0.216857165
28.31213594,0.428216547,0.103236228,-0.156992361
28.36213594,0.678060412,0.02687807,-0.469144523
28.41213594,-0.265115529,0.193644285,0.032375857
28.46213594,0.357967019,-0.149051115,0.145385921
28.51213594,-0.171653137,-0.05375614,0.157603234
28.56213594,-0.492968261,0.003054326,-0.021991149
28.61213594,-0.133779496,0.0842994,-0.044593163
28.66213594,0.092240654,0.070860371,0.023823744
28.71213594,0.10751228,0.025656341,0.073914692
28.76213594,-0.063529983,-0.044593163,0.248011291
28.81213594,0.101403631,-0.027488936,0.234572262
28.86213594,0.197920337,-0.01038471,0.258396
28.91213594,0.147829384,-0.09590584,0.160046697
28.96213594,-0.400116742,-0.005497787,0.154548913
29.01213594,0.397062421,-0.13072516,-0.09590584
29.06213594,-0.390953749,-0.028099801,0.04642576
29.11213594,-0.329256356,-0.017715093,0.034208454
29.16213594,-0.012217305,-0.064140849,0.056199603
29.21213594,-0.039095376,-0.081855945,-0.072692961
29.26213594,-0.108734012,0.031764992,-0.150272846
29.31213594,0.191200823,0.093462385,-0.239459172
29.36213594,0.181426972,0.075136423,-0.237626582
29.41213594,0.375682116,0,-0.481361806
29.46213594,0.133779496,0.17715092,-0.470977098
29.51213594,0.17898351,0.059253927,-0.01282817
29.56213594,0.109344877,-0.08124508,0.059864793
29.61213594,-0.616363049,-0.004276057,-0.056810468
29.66213594,-0.18875736,-0.006108652,-0.054367006
29.71213594,0.236404851,0.035430186,-0.058643065
29.76213594,0.089186326,0.05009095,0.062919118
29.81213594,-0.085521132,-0.102014497,0.087964594
29.86213594,-0.091629788,0.000610865,0.209526777
29.91213594,0.162490159,-0.075747289,0.067806043
29.96213594,0.209526777,0.030543262,0.004276057
30.01213594,-0.245567828,-0.045204028,0.268780708
30.06213594,0.112399206,0.032986723,0.266337246
30.11213594,-0.144775063,-0.054367006,-0.001832596
30.16213594,-0.557719946,0.052534413,0.027488936
30.21213594,-0.160657555,-0.028710667,0.068416908
30.26213594,-0.054977871,-0.007941248,0.031154128
30.31213594,0.070249505,-0.031154128,-0.001832596
30.36213594,0.008552114,0.059864793,-0.10445796
30.41213594,0.312152147,-0.036041051,-0.095294975
30.46213594,0.156992361,-0.091629788,-0.206472457
30.51213594,0.09590584,-0.041538838,-0.434325188
30.56213594,0.074525557,0.242513508,-0.039706241
30.61213594,0.278554559,-0.033597589,0.089186326
30.66213594,-0.257174254,0.047036625,0.064140849
30.71213594,-0.417831838,0.089186326,-0.145996794
30.76213594,-0.100792766,0.131336033,-0.180816114
30.81213594,0.087964594,0.144775063,-0.083688542
30.86213594,0.056199603,-0.02687807,0.012217305
30.91213594,0.098349303,-0.01160644,0.063529983
30.96213594,-0.026267206,0.061086524,0.226631001
31.01213594,0.170431405,-0.063529983,0.204028994
31.06213594,0.202807263,0.029321533,0.286495805
31.11213594,-0.585819781,-0.091018923,0.389121175
31.16213594,0.394618958,-0.040927973,0.22357668
31.21213594,-0.409279704,-0.057421334,0.128281698
31.26213594,-0.481972665,0.033597589,0.149661988
31.31213594,0.023823744,-0.113620937,0.029321533
31.36213594,0.052534413,-0.078190751,-0.070249505
31.41213594,0.045204028,-0.185703039,-0.172874868
31.46213594,0.189979091,-0.026267206,-0.172874868
31.51213594,0.161879286,-0.007941248,-0.065973446
31.56213594,0.340862811,-0.052534413,-0.339641064
31.61213594,-0.113620937,0.010995574,-0.35430184
31.66213594,0.229074463,0.128281698,0.031154128
31.71213594,0.122173049,0.029932396,0.000610865
31.76213594,-0.375071257,0.149051115,0.054367006
31.81213594,-0.158214092,0.147829384,-0.040317107
31.86213594,0.048869219,0.075136423,0.034208454
31.91213594,0.014660766,-0.01282817,0.050701816
31.96213594,0.004886922,-0.111177474,0.114231803
32.01213594,0.156381503,-0.030543262,0.079412483
32.06213594,0.157603234,-0.006108652,0.252287358
32.11213594,0.220522359,-0.015882496,0.135612086
32.16213594,-0.479529232,-0.074525557,0.173485726
32.21213594,-0.007330383,0.122173049,0.24678956
32.26213594,0.303600013,-0.132557765,0.091629788
32.31213594,-0.309097827,-0.108123146,0.099571034
32.36213594,-0.193033412,-0.141109869,0.066584311
32.41213594,0.004886922,-0.153327182,-0.007330383
32.46213594,0.004886922,-0.149051115,-0.083077677
32.51213594,0.08857546,-0.028710667,-0.161268428
32.56213594,0.238237441,-0.019547688,-0.292604446
32.61213594,0.248011291,0.025656341,-0.271224171
32.66213594,0.619417369,0.067195177,-0.527176678
32.71213594,0.193033412,0.016493361,-0.455094606
32.76213594,0.112399206,0.17715092,0.076358154
32.81213594,0.334754169,-0.070249505,-0.006108652
32.86213594,-0.38728857,0.022602014,-0.140499011
32.91213594,-0.208915919,0.033597589,-0.158824965
32.96213594,-0.098960169,0.018325957,-0.001832596
33.01213594,-0.042760566,-0.060475659,0.161268428
33.06213594,-0.226631001,-0.125227377,0.252287358
33.11213594,-0.101403631,-0.015271631,0.224798411
33.16213594,0.001832596,0.033597589,0.125227377
33.21213594,0.331699818,0.014660766,-0.017104227
33.26213594,0.277332813,-0.068416908,0.253509074
33.31213594,0.05009095,-0.064751714,0.382401645
33.36213594,0.032986723,0.02321288,0.10445796
33.41213594,-0.55649823,-0.044593163,-0.035430186
33.46213594,-0.238848314,-0.086742863,0.028710667
33.51213594,-0.061086524,-0.161268428,0.00122173
33.56213594,-0.251065612,-0.063529983,0.008552114
33.61213594,-0.083688542,0.020769419,-0.137444675
33.66213594,0.029321533,0.155770645,-0.207083315
33.71213594,0.191200823,0.027488936,-0.310319543
33.76213594,0.551611304,-0.102014497,-0.524733245
33.81213594,0.128281698,0.067806043,-0.33780849
33.86213594,0.564439476,0.17898351,0.083688542
33.91213594,0.058643065,-0.096516706,0.114842668
33.96213594,-0.73181659,-0.128281698,0.020769419
34.01213594,-0.403171063,0.05375614,-0.079412483
34.06213594,-0.014660766,0.115453534,0.017715093
34.11213594,0.103236228,0.030543262,0.065973446
34.16213594,-0.106901415,-0.009773844,0.134390354
34.21213594,0.064751714,-0.100792766,0.193644285
34.26213594,0.279165417,-0.037262779,0.240680903
34.31213594,0.398894996,0.048258353,0.018325957
34.36213594,-0.02321288,0.026267206,0.435546935
34.41213594,0.090408057,0.01160644,0.421497017
34.46213594,-0.098349303,-0.009773844,0.09285152
34.51213594,-0.68233645,-0.035430186,0.09285152
34.56213594,-0.367130011,-0.045814894,0.084910266
34.61213594,-0.120340452,-0.048869219,0.071471237
34.66213594,-0.031764992,-0.048258353,-0.003665192
34.71213594,-0.067195177,0.03848451,-0.172263995
34.76213594,0.288939267,0.148440257,-0.173485726
34.81213594,0.415388376,0.161879286,-0.186924771
34.86213594,0.196698606,0.014660766,-0.383623362
34.91213594,-0.075136423,0.015882496,-0.108734012
34.96213594,0.33780849,-0.07696902,0.199142069
35.01213594,0.032986723,-0.11178834,0.101403631
35.06213594,-0.465479314,-0.041538838,0.02321288
35.11213594,-0.183870435,0.077579886,-0.091018923
35.16213594,0.001832596,0.131946892,-0.070249505
35.21213594,-0.031154128,-0.047647487,0.007330383
35.26213594,0.083688542,-0.01160644,0.056199603
35.31213594,-0.126449108,-0.021380283,0.18875736
35.36213594,0.0421497,0.079412483,0.067806043
35.41213594,0.275500238,0.089186326,-0.03848451
35.46213594,-0.483805269,-0.03481932,0.38728857
35.51213594,0.453872889,-0.072692961,0.232128799
35.56213594,-0.136833817,-0.003054326,0.075136423
35.61213594,-0.554665625,0.062919118,0.103236228
35.66213594,-0.282830596,0.014049901,0.128281698
35.71213594,-0.067195177,-0.082466811,0.084910266
35.76213594,-0.01160644,-0.051923547,-0.099571034
35.81213594,0.07696902,0.008552114,-0.328645498
35.86213594,0.256563395,-0.0421497,-0.467311919
35.91213594,-0.007941248,-0.06536258,-0.538172305
35.96213594,0.158824965,-0.039095376,-0.533285379
36.01213594,-0.136833817,0.215024561,0.1001819
36.06213594,0.705549359,-0.067806043,-0.070860371
36.11213594,-0.336586744,-0.003054326,0.01038471
36.16213594,-0.571159005,0.007941248,-0.124616511
36.21213594,-0.061086524,0.0421497,-0.062308256
36.26213594,0.00122173,-0.0421497,0.080023348
36.31213594,-0.133168623,-0.037262779,0.133779496
36.36213594,-0.056199603,-0.025656341,0.156381503
36.41213594,0.068416908,-0.037262779,0.217468023
36.46213594,0.039706241,0.026267206,0.158214092
36.51213594,0.152716309,0.127059966,0.11911872
36.56213594,-0.219300628,-0.035430186,0.438601255
36.61213594,0.207083315,0.03848451,0.157603234
36.66213594,-0.414166629,0.029321533,0.042760566
36.71213594,-0.474031419,0.034208454,0.150883719
36.76213594,0.006108652,-0.079412483,0.085521132
36.81213594,-0.073914692,-0.057421334,0.093462385
36.86213594,-0.124005646,0.015882496,-0.03848451
36.91213594,0.395840675,0.072082102,-0.122783914
36.96213594,0.138666406,-0.012217305,-0.215024561
37.01213594,0.408057988,-0.037262779,-0.443488181
37.06213594,-0.418442696,0.152105451,-0.178372651
37.11213594,0.555276513,0.031154128,-0.036651913
37.16213594,0.237626582,-0.039706241,-0.031764992
37.21213594,-0.386677712,-0.05375614,-0.141109869
37.26213594,-0.207083315,0.056199603,-0.185092166
37.31213594,-0.146607652,0.015882496,-0.109344877
37.36213594,-0.029321533,-0.014049901,-0.013439035
37.41213594,-0.09285152,0.033597589,0.056810468
37.46213594,0.142942473,-0.001832596,0.204028994
37.51213594,0.142942473,0.163101018,0.164933622
37.56213594,0.215635434,0.031154128,-0.045814894
37.61213594,0.38728857,0.17715092,0.194866017
37.66213594,0.331699818,0.028099801,0.58276546
37.71213594,-0.259617716,0.077579886,0.096516706
37.76213594,-0.564439476,-0.051923547,-0.120951317
37.81213594,-0.530841887,0.117286131,-0.07696902
37.86213594,-0.159435824,-0.106290549,-0.021380283
37.91213594,0.045204028,-0.138055548,0.094073251
37.96213594,0.087353729,-0.090408057,-0.08857546
38.01213594,0.169820532,0.022602014,-0.137444675
38.06213594,0.163101018,0.112399206,-0.189368233
38.11213594,0.458759785,-0.01038471,-0.585208893
38.16213594,0.152716309,0.093462385,-0.218689755
38.21213594,0.261450321,0.043371432,0.048869219
38.26213594,-0.073914692,-0.071471237,-0.098349303
38.31213594,-0.516791999,-0.036651913,-0.212581098
38.36213594,0.143553332,-0.006719518,-0.17898351
38.41213594,0.01160644,0.001832596,-0.031764992
38.46213594,0.103847094,-0.012217305,0.070249505
38.51213594,0.013439035,-0.031154128,0.102625363
38.56213594,0.047647487,0.047647487,0.134390354
38.61213594,0.114842668,0.111177474,0.128281698
38.66213594,-0.158214092,0.163101018,0.164322749
38.71213594,0.007941248,-0.071471237,0.241291776
38.76213594,0.105068825,-0.067806043,0.006719518
38.81213594,-0.458759785,-0.145996794,0.051312681
38.86213594,-0.322536856,0.014660766,0.134390354
38.91213594,-0.030543262,-0.056810468,0.180205241
38.96213594,0.02687807,-0.120340452,0.121562183
39.01213594,0.22174409,-0.097127572,0.05009095
39.06213594,0.260228604,0.021380283,-0.117896989
39.11213594,0.366519153,-0.020769419,-0.192422554
39.16213594,0.229074463,0.131336033,-0.373238653
39.21213594,-0.041538838,0.145385921,-0.320093393
39.26213594,0.018936822,0.111177474,0.093462385
39.31213594,0.151494578,-0.111177474,0.030543262
39.36213594,-0.39400807,0.00122173,-0.121562183
39.41213594,-0.069027774,0.049480084,-0.187535629
39.46213594,-0.10445796,0.018325957,0.002443461
39.51213594,0.112399206,-0.133168623,0
39.56213594,-0.073914692,-0.135001212,0.077579886
39.61213594,0.002443461,0.04642576,0.052534413
39.66213594,0.237626582,-0.034208454,0.029932396
39.71213594,0.289550126,0.056199603,-0.060475659
39.76213594,-0.171042264,-0.06536258,0.361632228
39.81213594,0.230907068,-0.067806043,0.253509074
39.86213594,-0.147829384,-0.044593163,0.125227377
39.91213594,-0.434936047,-0.078190751,0.078801617
39.96213594,-0.157603234,-0.084910266,0.061086524
40.01213594,-0.06169739,-0.100792766,0.01160644
40.06213594,-0.015882496,-0.029932396,-0.016493361
40.11213594,0.033597589,0.022602014,-0.139277279
40.16213594,0.235793978,0.094684117,-0.135612086
40.21213594,0.296269655,-0.01160644,-0.266337246
40.26213594,0.338419348,-0.133779496,-0.493579119
40.31213594,-0.684169054,0.185092166,0.248011291
40.36213594,0.751364231,-0.03481932,-0.008552114
40.41213594,-0.23335053,0.076358154,0.086131997
40.46213594,-0.497855187,-0.002443461,-0.178372651
40.51213594,-0.136833817,0.128281698,-0.209526777
40.56213594,-0.080023348,-0.017104227,-0.120340452
40.61213594,-0.00122173,-0.059253927,0.005497787
40.66213594,0.016493361,-0.020769419,0.019547688
40.71213594,0.154548913,-0.054977871,0.084910266
40.76213594,0.130114302,0.056199603,0.160657555
40.81213594,0.364075691,0.145385921,0.021991149
40.86213594,-0.276721954,0.016493361,0.416610092
40.91213594,0.370184332,0.000610865,0.10445796
40.96213594,-0.417831838,-0.100792766,0.076358154
41.01213594,-0.500909507,0.043371432,0.105068825
41.06213594,-0.1001819,-0.04642576,0.159435824
41.11213594,0.040317107,-0.121562183,0.183870435
41.16213594,0.137444675,0.018936822,0.131946892
41.21213594,0.382401645,0.018936822,-0.166766211
41.26213594,-0.020769419,0.109955743,0.03481932
41.31213594,0.265726388,-0.039706241,-0.364075691
41.36213594,-0.372627795,0.098960169,-0.225409269
41.41213594,0.357967019,-0.023823744,-0.01038471
41.46213594,0.315206468,-0.156381503,0.048258353
41.51213594,-0.641408503,0.010995574,-0.051312681
41.56213594,-0.249233022,0.090408057,-0.158824965
41.61213594,-0.073303826,0.078190751,-0.133168623
41.66213594,0.05009095,0.045204028,-0.02321288
41.71213594,-0.002443461,-0.029321533,0.030543262
41.76213594,0.07696902,-0.025045475,0.040927973
41.81213594,-0.036651913,0.042760566,0.124005646
41.86213594,0.234572262,0.026267206,-0.134390354
41.91213594,-0.52656585,0.031764992,0.159435824
41.96213594,0.648128033,-0.018936822,0.062308256
42.01213594,0.09590584,-0.128892571,-0.053145275
42.06213594,-0.458148927,-0.04642576,0.086131997
42.11213594,-0.262061179,-0.055588737,0.014049901
42.16213594,0.025045475,-0.128281698,0.008552114
42.21213594,0.086742863,-0.118507855,-0.03481932
42.26213594,0.06536258,-0.056199603,-0.089186326
42.31213594,-0.032986723,0.073303826,-0.102014497
42.36213594,0.052534413,-0.01160644,-0.094684117
42.41213594,0.326812893,0.023823744,-0.471587956
42.46213594,-0.126449108,0.270613313,-0.012217305
42.51213594,0.488081336,-0.037262779,0.196698606
42.56213594,0.219911486,-0.08124508,0.135612086
42.61213594,-0.690888584,0.048258353,-0.061086524
42.66213594,-0.339030206,0.140499011,-0.202196389
42.71213594,0.007941248,0.021380283,-0.15393804
42.76213594,0.103236228,-0.034208454,-0.06963864
42.81213594,-0.055588737,-0.125838235,0.120951317
42.86213594,0.142942473,-0.141109869,0.163711891
42.91213594,-0.070860371,0.07696902,0.17898351
42.96213594,0.057421334,0.030543262,-0.139277279
43.01213594,-0.483805269,-0.084910266,0.287106663
43.06213594,0.514348507,-0.040927973,0.114231803
43.11213594,-0.241291776,-0.159435824,0.142942473
43.16213594,-0.398284137,-0.052534413,0.185703039
43.21213594,0.070860371,-0.064751714,0.117286131
43.26213594,0.06963864,-0.102014497,0.087353729
43.31213594,0.111177474,-0.034208454,0.067806043
43.36213594,0.021991149,0.018325957,-0.060475659
43.41213594,0.366519153,-0.102625363,0.005497787
43.46213594,0.200974673,0.027488936,-0.265726388
43.51213594,0.274278492,-0.007330383,-0.640186787
43.56213594,-0.185703039,0.277943701,0.149051115
43.61213594,0.693942905,-0.145996794,-0.057421334
43.66213594,-0.192422554,0.082466811,0.051923547
43.71213594,-0.398284137,0.136222944,-0.215024561
43.76213594,-0.008552114,0.150272846,-0.177761793
43.81213594,-0.122783914,0.127059966,-0.017715093
43.86213594,-0.0580322,-0.013439035,0.058643065
43.91213594,0.121562183,0.017715093,0.154548913
43.96213594,0.156992361,-0.078190751,0.136833817
44.01213594,0.125227377,0.050701816,0.149661988
44.06213594,0.133779496,0.03481932,-0.039095376
44.11213594,-0.500298619,0.103847094,0.412944913
44.16213594,0.466090173,0.047647487,0.186313897
44.21213594,-0.265115529,-0.116675265,0.191811681
44.26213594,-0.312152147,-0.07696902,0.147218525
44.31213594,-0.224798411,-0.089186326,0.037873644
44.36213594,-0.16554448,-0.048258353,0.017715093
44.41213594,-0.141720742,0.008552114,-0.054977871
44.46213594,0.045814894,0.103847094,-0.2003638
44.51213594,0.149051115,0.062308256,-0.257174254
44.56213594,0.502742112,0.08857546,-0.441044718
44.61213594,0.098349303,-0.024434609,-0.573602438
44.66213594,-0.021991149,0.205861583,0.136833817
44.71213594,0.359188765,-0.211359382,0.132557765
44.76213594,-0.339641064,-0.13072516,0.109344877
44.81213594,-0.392786354,-0.073303826,-0.10445796
44.86213594,0.026267206,0.043982297,-0.136833817
44.91213594,0.139888138,0.070860371,-0.051312681
44.96213594,0.152716309,0.023823744,0.025656341
45.01213594,-0.062919118,-0.191200823,0.000610865
45.06213594,0.131336033,-0.150272846,0.055588737
45.11213594,0.241291776,-0.217468023,-0.085521132
45.16213594,-0.054977871,0.157603234,0.012217305
45.21213594,0.135001212,-0.028710667,0.411112309
45.26213594,0.162490159,-0.014660766,0.21197024
45.31213594,-0.500298619,-0.098349303,0.192422554
45.36213594,-0.441044718,0.004276057,0.212581098
45.41213594,-0.049480084,-0.08124508,0.139277279
45.46213594,-0.077579886,-0.078190751,0.130114302
45.51213594,-0.085521132,-0.024434609,-0.060475659
45.56213594,0.099571034,0.129503429,-0.234572262
45.61213594,0.140499011,0.189979091,-0.120951317
45.66213594,0.41722095,0.037262779,-0.38728857
45.71213594,0.037873644,0.111177474,-0.397062421
45.76213594,0.174096599,0.122173049,0.175318331
45.81213594,0.264504641,-0.148440257,0.113010071
45.86213594,-0.439212114,0.033597589,0.048869219
45.91213594,-0.317649931,0.066584311,-0.176540062
45.96213594,0.133779496,0.120340452,-0.141720742
46.01213594,0.093462385,0.113620937,-0.001832596
46.06213594,-0.02687807,0.001832596,0.111177474
46.11213594,-0.08124508,0.024434609,0.243735239
46.16213594,-0.01160644,-0.081855945,0.204639852
46.21213594,0.191200823,-0.053145275,0.1001819
46.26213594,-0.177761793,0.017715093,0.121562183
46.31213594,-0.313373864,0.076358154,0.334143281
46.36213594,0.364075691,-0.041538838,0.147218525
46.41213594,-0.458759785,-0.089186326,0.218078896
46.46213594,-0.436157793,-0.056199603,0.180205241
46.51213594,-0.085521132,-0.0580322,0.096516706
46.56213594,-0.083077677,-0.072082102,0.031764992
46.61213594,-0.067195177,0.020158554,-0.043371432
46.66213594,-0.003054326,0.090408057,-0.203418121
46.71213594,0.340251952,0.04642576,-0.19853121
46.76213594,0.253509074,0.025656341,-0.267558992
46.81213594,-0.007941248,0.176540062,-0.406836242
46.86213594,-0.121562183,0.113620937,0.113010071
46.91213594,0.339641064,-0.126449108,-0.027488936
46.96213594,-0.095294975,-0.087353729,-0.040317107
47.01213594,-0.389732033,0.026267206,-0.253509074
47.06213594,-0.210748509,0.002443461,-0.186313897
47.11213594,0.014660766,0.031764992,-0.034208454
47.16213594,0.081855945,-0.015882496,0.069027774
47.21213594,0.204639852,-0.02321288,0.139888138
47.26213594,0.122173049,0.033597589,0.199752942
47.31213594,0.191811681,0.053145275,0.054977871
47.36213594,-0.059864793,-0.028710667,0.292604446
47.41213594,0.142942473,-0.02321288,0.352469236
47.46213594,0.288328409,-0.043371432,0.077579886
47.51213594,-0.258396,-0.023823744,0.081855945
47.56213594,-0.248622149,0.007330383,0.092240654
47.61213594,0.063529983,-0.101403631,0.032375857
47.66213594,0.063529983,-0.045204028,0.018325957
47.71213594,-0.044593163,0.06536258,-0.095294975
47.76213594,0.360410482,0.306654364,-0.124005646
47.81213594,0.361632228,0.299323976,-0.169209674
47.86213594,0.389732033,-0.101403631,-0.321925998
47.91213594,-0.426994801,0.016493361,-0.345749736
47.96213594,0.160046697,0.015271631,0.18875736
48.01213594,0.169209674,-0.12339478,0.02321288
48.06213594,-0.481361806,0.006108652,-0.009162978
48.11213594,-0.346360594,-0.026267206,-0.135001212
48.16213594,0.080023348,-0.021380283,-0.080023348
48.21213594,0.01282817,0.018325957,-0.018936822
48.26213594,0.083077677,-0.171042264,0.084910266
48.31213594,0.020769419,0.017104227,0.100792766
48.36213594,0.071471237,-0.139277279,0.058643065
48.41213594,0.30115658,-0.0421497,0.009773844
48.46213594,-0.393397212,0.014049901,0.185092166
48.51213594,0.008552114,0.076358154,0.230907068
48.56213594,0.139888138,-0.051312681,0.06963864
48.61213594,-0.497244299,-0.028710667,0.117896989
48.66213594,-0.348193198,0.023823744,0.029932396
48.71213594,-0.086131997,0.020769419,0.006108652
48.76213594,-0.005497787,-0.02687807,-0.05375614
48.81213594,0.043982297,0.062308256,-0.089186326
48.86213594,0.471587956,0.12339478,-0.186313897
48.91213594,0.208305046,0.175929189,-0.007941248
48.96213594,0.463035852,0.026267206,-0.255952537
49.01213594,-0.532674491,0.008552114,0.191200823
49.06213594,0.047036625,0.042760566,0.130114302
49.11213594,0.191811681,-0.009773844,0.093462385
49.16213594,-0.374460399,0.059253927,-0.077579886
49.21213594,-0.025656341,0.014660766,-0.171042264
49.26213594,0.106901415,0.02687807,-0.120951317
49.31213594,0.028710667,-0.145996794,-0.015271631
49.36213594,0.154548913,-0.222965822,0.075136423
49.41213594,0.103847094,0.026267206,0.135001212
49.46213594,0.028099801,0.057421334,0.125838235
49.51213594,0.244346097,0.082466811,-0.138055548
49.56213594,-0.241902635,-0.112399206,0.164933622
49.61213594,0.091018923,0.017715093,0.164322749
49.66213594,-0.051923547,0.029321533,0.025656341
49.71213594,-0.506407261,0.01282817,0.150272846
49.76213594,-0.140499011,-0.042760566,0.124616511
49.81213594,0.020158554,-0.076358154,0.207083315
49.86213594,0.110566609,0.027488936,0.197920337
49.91213594,0.139888138,0.01160644,-0.052534413
49.96213594,0.248622149,0.01038471,-0.167377085
50.01213594,0.061086524,-0.025045475,-0.248011291
50.06213594,0.521068037,-0.080634214,-0.516791999
50.11213594,-0.341473669,0.079412483,-0.03848451
50.16213594,0.676227808,-0.103847094,-0.017715093
50.21213594,-0.035430186,-0.049480084,0.051312681
50.26213594,-0.538783133,0.067806043,-0.192422554
50.31213594,-0.257174254,0.226631001,-0.207083315
50.36213594,-0.233961389,0.140499011,-0.148440257
50.41213594,0.017715093,0.06536258,-0.010995574
50.46213594,-0.003054326,-0.248622149,0.002443461
50.51213594,0.1423316,-0.081855945,0.118507855
50.56213594,0.15393804,-0.003054326,0.015882496
50.61213594,0.432492584,0.151494578,-0.09285152
50.66213594,-0.364075691,-0.152105451,0.313373864
50.71213594,0.193644285,0.06536258,0.192422554
50.76213594,-0.113010071,-0.099571034,0.062919118
50.81213594,-0.462424994,-0.037873644,0.113620937
50.86213594,-0.201585531,-0.045204028,0.149051115
50.91213594,-0.080634214,-0.095294975,0.164322749
50.96213594,0.040317107,-0.073303826,0.037873644
51.01213594,0.119729586,0.087353729,-0.029321533
51.06213594,0.511905074,0.025045475,-0.131336033
51.11213594,0.153327182,0.086131997,-0.074525557
51.16213594,0.103236228,-0.031764992,-0.488081336
51.21213594,-0.225409269,0.19853121,0.227852732
51.26213594,0.441655576,-0.131336033,0.122173049
51.31213594,-0.105679691,0.101403631,0.150883719
51.36213594,-0.507629037,0.117896989,-0.135001212
51.41213594,-0.329867244,0.007330383,-0.177761793
51.46213594,-0.175929189,0.103236228,-0.1001819
51.51213594,0.15393804,-0.189979091,-0.040927973
51.56213594,0.108123146,-0.032986723,-0.036041051
51.61213594,0.144775063,-0.019547688,0.064140849
51.66213594,0.189368233,-0.007330383,-0.10751228
51.71213594,0.045204028,0.035430186,-0.003054326
51.76213594,-0.574213326,-0.021991149,0.112399206
51.81213594,0.444709897,-0.007941248,0.049480084
51.86213594,-0.402560204,-0.072082102,0.151494578
51.91213594,-0.275500238,-0.014660766,0.212581098
51.96213594,-0.113010071,-0.133168623,0.168598801
52.01213594,0.045204028,-0.1001819,0.112399206
52.06213594,0.067806043,-0.11911872,-0.0421497
52.11213594,0.419053555,0.102014497,-0.139277279
52.16213594,0.189368233,0.032986723,-0.207083315
52.21213594,0.554054797,0.03481932,-0.428216547
52.26213594,-0.48014009,0.009162978,-0.180816114
52.31213594,0.326812893,-0.135612086,0.196698606
52.36213594,0.405003667,-0.134390354,-0.06169739
52.41213594,-0.496022582,0.114231803,-0.078801617
52.46213594,-0.020158554,0.185092166,-0.215635434
52.51213594,-0.000610865,0.145385921,-0.030543262
52.56213594,-0.089797191,-0.058643065,0.019547688
52.61213594,-0.056199603,-0.048258353,0.053145275
52.66213594,0.182648704,-0.081855945,0.037873644
52.71213594,0.087353729,0.053145275,0.124616511
52.76213594,-0.036041051,0.01160644,-0.114231803
52.81213594,-0.773966253,-0.009162978,0.101403631
52.86213594,0.390342891,0.06963864,0.0842994
52.91213594,-0.38423425,0.014049901,0.218689755
52.96213594,-0.411112309,-0.020769419,0.183870435
53.01213594,-0.022602014,-0.069027774,0.15393804
53.06213594,-0.023823744,-0.113010071,0.047647487
53.11213594,0.01282817,-0.138055548,0.043371432
53.16213594,0.071471237,0.021991149,-0.095294975
53.21213594,0.269391567,0.02687807,-0.164322749
53.26213594,0.171653137,0.094073251,-0.345138878
53.31213594,0.321925998,0.137444675,-0.638354182
53.36213594,-0.328645498,0.326812893,-0.060475659
53.41213594,0.309097827,-0.039095376,0.095294975
53.46213594,-0.332310706,-0.009773844,0.136222944
53.51213594,-0.350025773,-0.166155353,-0.100792766
53.56213594,-0.048869219,-0.073914692,-0.139277279
53.61213594,-0.094684117,-0.048869219,-0.03848451
53.66213594,0.087353729,-0.064140849,0.054977871
53.71213594,0.051923547,-0.054977871,0.102625363
53.76213594,0.029321533,0.103847094,0.117286131
53.81213594,0.230907068,0.060475659,0.019547688
53.86213594,0.213802829,0.125838235,0.122783914
53.91213594,-0.276721954,-0.024434609,0.379958183
53.96213594,0.003665192,0.062308256,0.144775063
54.01213594,-0.415999234,-0.04642576,0.094073251
54.06213594,-0.449596822,0.022602014,0.129503429
54.11213594,-0.113010071,-0.136833817,0.130114302
54.16213594,0.078190751,-0.127670839,0.139888138
54.21213594,0.056199603,-0.082466811,-0.034208454
54.26213594,0.064751714,0.051923547,-0.117896989
54.31213594,0.199142069,0.004886922,-0.155770645
54.36213594,0.219300628,0.03481932,-0.350636661
54.41213594,0.285884947,-0.17715092,-0.726318777
54.46213594,0.186313897,0.09590584,-0.086131997
54.51213594,0.106901415,-0.250454754,-0.004276057
54.56213594,-0.466701061,-0.036651913,-0.047036625
54.61213594,-0.605367482,0.086742863,-0.122783914
54.66213594,-0.090408057,0.18875736,-0.139277279
54.71213594,-0.098960169,0.214413703,-0.028710667
54.76213594,-0.06169739,0.10445796,0.009773844
54.81213594,0.087353729,0.124616511,0.066584311
54.86213594,0.063529983,0.135612086,0.12339478
54.91213594,0.231517926,0.09590584,0.04642576
54.96213594,-0.266337246,0.06536258,0.172263995
55.01213594,-0.195476875,0.02321288,0.172874868
55.06213594,0.096516706,-0.0580322,0.015271631
55.11213594,-0.439212114,-0.097127572,0.096516706
55.16213594,-0.192422554,-0.083077677,0.150272846
55.21213594,0.020769419,-0.182648704,0.117286131
55.26213594,-0.029321533,-0.071471237,0.11178834
55.31213594,0.056199603,-0.040927973,-0.063529983
55.36213594,0.323147714,0.040927973,-0.1001819
55.41213594,0.277943701,-0.024434609,-0.126449108
55.46213594,0.328034639,-0.061086524,-0.356134445
55.51213594,-0.381790787,0.105679691,-0.292604446
55.56213594,0.352469236,0.029321533,-0.0580322
55.61213594,0.073303826,0.019547688,-0.01038471
55.66213594,-0.423329622,-0.014049901,-0.094073251
55.71213594,-0.169209674,0.142942473,-0.182037845
55.76213594,-0.042760566,0.084910266,-0.113010071
55.81213594,0.007941248,0.009162978,-0.039095376
55.86213594,0.180816114,-0.028710667,0.044593163
55.91213594,0.076358154,0.01160644,0.126449108
55.96213594,0.139888138,0.048258353,0.213191971
56.01213594,0.215635434,0.023823744,0.05009095
56.06213594,-0.655458391,0.051312681,0.249233022
56.11213594,0.128892571,0.013439035,0.130114302
56.16213594,-0.329867244,-0.0580322,0.124616511
56.21213594,-0.360410482,-0.078801617,0.153327182
56.26213594,0.039706241,-0.167987943,0.115453534
56.31213594,0.008552114,-0.142942473,0.158214092
56.36213594,-0.012217305,-0.1160644,0.050701816
56.41213594,0.032375857,0.006108652,-0.075136423
56.46213594,0.05375614,0.018936822,-0.169820532
56.51213594,0.295658767,0.062308256,-0.189979091
56.56213594,0.084910266,0.082466811,-0.512515962
56.61213594,0.075747289,0.137444675,-0.163711891
56.66213594,0.252898216,0.03481932,0.09285152
56.71213594,-0.212581098,-0.06963864,0.075136423
56.76213594,-0.513737679,-0.043371432,-0.150883719
56.81213594,-0.189368233,0.096516706,-0.171042264
56.86213594,-0.025656341,0.159435824,-0.027488936
56.91213594,0.124616511,0.1160644,-0.014660766
56.96213594,0.156992361,0.045204028,0.086742863
57.01213594,0.132557765,-0.006108652,0.121562183
57.06213594,0.251065612,0.066584311,0.175318331
57.11213594,0.257174254,0.054977871,0.187535629
57.16213594,-0.320704252,0.064751714,0.405614525
57.21213594,0.249843881,0.055588737,0.213191971
57.26213594,-0.367130011,-0.029932396,0.143553332
57.31213594,-0.312763006,-0.045204028,0.160657555
57.36213594,-0.025656341,-0.191200823,0.114231803
57.41213594,-0.052534413,-0.145385921,0.113010071
57.46213594,0.003054326,-0.089797191,-0.036651913
57.51213594,0.075747289,-0.03848451,-0.213191971
57.56213594,-0.015882496,0.082466811,-0.161268428
57.61213594,0.383012503,0.008552114,-0.394618958
57.66213594,0.1160644,0.005497787,-0.579711139
57.71213594,0.016493361,0.251065612,0.069027774
57.76213594,0.188146502,-0.160657555,0.078190751
57.81213594,-0.591928423,-0.042760566,0.029321533
57.86213594,-0.371406078,0.031154128,-0.150883719
57.91213594,-0.026267206,0.083077677,-0.095294975
57.96213594,0.02687807,0.09590584,-0.037873644
58.01213594,0.12339478,-0.004886922,0.007330383
58.06213594,0.1160644,0.05375614,0.187535629
58.11213594,0.224187538,0.012217305,0.110566609
58.16213594,0.224187538,0.072692961,0.075747289
58.21213594,-0.362243086,-0.05375614,0.105068825
58.26213594,-0.064751714,0.0842994,0.192422554
58.31213594,0.075747289,-0.067806043,0.117896989
58.36213594,-0.308486939,-0.070249505,0.228463605
58.41213594,-0.110566609,-0.11178834,0.254119933
58.46213594,-0.006108652,-0.139888138,0.183259577
58.51213594,0.029321533,-0.067806043,0.083688542
58.56213594,0.067195177,-0.073914692,-0.102014497
58.61213594,0.224798411,0.039706241,-0.113620937
58.66213594,0.209526777,-0.023823744,-0.181426972
58.71213594,0.386677712,-0.025656341,-0.293215305
58.76213594,-0.159435824,-0.075747289,-0.400116742
58.81213594,0.266948104,0.131336033,0.000610865
58.86213594,0.133779496,-0.048869219,0.019547688
58.91213594,-0.456316352,0.017715093,-0.048258353
58.96213594,-0.142942473,0.008552114,-0.18875736
59.01213594,-0.006108652,0.08857546,-0.049480084
59.06213594,0.06963864,0.078801617,0.00122173
59.11213594,0.067195177,0.034208454,0.096516706
59.16213594,0.27488935,-0.007330383,0.211359382
59.21213594,0.048869219,0.082466811,0.255341679
59.26213594,0.185092166,-0.015882496,-0.084910266
59.31213594,-0.466701061,0.124616511,0.202196389
59.36213594,0.323147714,0.113010071,0.243124366
59.41213594,0.271835029,0.01038471,0.117286131
59.46213594,-0.469755381,-0.080634214,0.028710667
59.51213594,-0.208915919,-0.055588737,0.043982297
59.56213594,-0.050701816,-0.148440257,0.057421334
59.61213594,-0.067195177,-0.13072516,0.013439035
59.66213594,0.005497787,-0.075136423,-0.094073251
59.71213594,0.276111096,0.013439035,-0.2003638
59.76213594,0.159435824,0.103236228,-0.115453534
59.81213594,0.389732033,-0.145385921,-0.356745303
59.86213594,-0.292604446,-0.053145275,-0.345138878
59.91213594,0.133168623,0.144164205,0.122173049
59.96213594,0.303600013,-0.05375614,0.024434609
60.01213594,-0.409890592,0.061086524,-0.021380283
60.06213594,-0.226020142,0.057421334,-0.197920337
60.11213594,-0.089797191,0.139277279,-0.03848451
60.16213594,0.007330383,0.02687807,-0.014660766
60.21213594,0.014049901,0.010995574,0.119729586
60.26213594,0.06536258,-0.002443461,0.160046697
60.31213594,0.171042264,0.111177474,0.228463605
60.36213594,0.196698606,0.056810468,0.014049901
60.41213594,-0.382401645,0.037873644,0.131946892
60.46213594,-0.079412483,0.004276057,0.166155353
60.51213594,0.268780708,-0.048869219,0.052534413
60.56213594,-0.337197602,-0.151494578,0.03481932
60.61213594,-0.247400418,-0.091018923,0.086742863
60.66213594,-0.014660766,-0.1160644,0.064140849
60.71213594,0.031764992,-0.075136423,0.086742863
60.76213594,-0.02321288,-0.039706241,0.024434609
60.81213594,0.199752942,0.002443461,-0.109955743
60.86213594,0.042760566,0.02687807,-0.17715092
60.91213594,0.22174409,-0.06536258,-0.346360594
60.96213594,0.117896989,-0.061086524,-0.379958183
61.01213594,0.157603234,0.122783914,0.043371432
61.06213594,0.171653137,-0.186924771,0.09590584
61.11213594,-0.371406078,-0.028710667,0.02321288
61.16213594,-0.397062421,0.007941248,-0.089797191
61.21213594,-0.065973446,0.1423316,-0.066584311
61.26213594,0.010995574,0.098960169,0.043371432
61.31213594,0.0580322,0.021380283,0.117286131
61.36213594,0.169820532,-0.05375614,0.155159771
61.41213594,-0.005497787,0.050701816,0.134390354
61.46213594,0.196087748,0.049480084,-0.014049901
61.51213594,-0.128281698,0.105068825,0.078801617
61.56213594,-0.194866017,-0.094073251,0.148440257
61.61213594,0.264504641,-0.051312681,0.076358154
61.66213594,-0.302378297,-0.097127572,-0.056810468
61.71213594,-0.418442696,0.018936822,0.062308256
61.76213594,-0.059864793,-0.08857546,0.017715093
61.81213594,0.02321288,-0.103847094,0.032986723
61.86213594,-0.0580322,-0.042760566,-0.083688542
61.91213594,0.189368233,0.064140849,-0.134390354
61.96213594,0.249843881,0.060475659,-0.122173049
62.01213594,0.547335267,0.036651913,-0.277943701
62.06213594,0.134390354,-0.040317107,-0.356134445
62.11213594,0.218078896,0.174707457,0.160657555
62.16213594,0.152716309,-0.087353729,-0.02687807
62.21213594,-0.521678925,0.08124508,-0.009773844
62.26213594,-0.363464832,0.06169739,-0.217468023
62.31213594,-0.024434609,0.2003638,-0.110566609
62.36213594,-0.018325957,0.050701816,-0.037873644
62.41213594,0.039095376,0.028710667,0.037262779
62.46213594,0.089797191,-0.048258353,0.040317107
62.51213594,0.094684117,0.049480084,0.081855945
62.56213594,0.2003638,0.063529983,-0.067806043
62.61213594,0.24495697,0.09590584,0.097127572
62.66213594,-0.147218525,-0.03481932,0.524122357
62.71213594,0.025656341,-0.052534413,0.172263995
62.76213594,-0.229685336,-0.135612086,0.04642576
62.81213594,-0.41722095,-0.109344877,0.151494578
62.86213594,-0.216246292,-0.194866017,0.100792766
62.91213594,-0.105679691,-0.133779496,0.08124508
62.96213594,-0.085521132,-0.091629788,-0.087964594
63.01213594,0.212581098,0.008552114,-0.144775063
63.06213594,0.262061179,0.089797191,-0.05375614
63.11213594,0.161268428,0.007330383,-0.27488935
63.16213594,-0.021380283,-0.033597589,-0.266948104
63.21213594,0.109955743,0.125227377,0.075747289
63.26213594,0.056199603,-0.052534413,-0.014660766
63.31213594,-0.423329622,-0.001832596,-0.067195177
63.36213594,-0.296269655,0.075136423,-0.2003638
63.41213594,-0.016493361,0.139888138,-0.091629788
63.46213594,0.056199603,0.062919118,-0.015882496
63.51213594,0.138055548,-0.01038471,0.045814894
63.56213594,0.0580322,0.001832596,0.10445796
63.61213594,0.037873644,0.108123146,0.120340452
63.66213594,0.286495805,0.055588737,-0.017104227
63.71213594,-0.19058995,0.048258353,0.148440257
63.76213594,-0.031764992,-0.007330383,0.273667634
63.81213594,0.145385921,-0.061086524,0.136222944
63.86213594,-0.411723167,-0.08857546,0.114842668
63.91213594,-0.297491372,-0.073303826,0.124616511
63.96213594,-0.028099801,-0.152716309,0.057421334
64.01213594,0.007330383,-0.099571034,0.056199603
64.06213594,-0.018936822,-0.047647487,-0.082466811
64.11213594,0.279776275,0.018936822,-0.120340452
64.16213594,0.266948104,-0.01160644,-0.081855945
64.21213594,0.241291776,-0.020158554,-0.180205241
64.26213594,-0.043371432,0.003665192,-0.263282925
64.31213594,-0.00122173,0.127059966,0.215635434
64.36213594,0.193033412,-0.034208454,-0.010995574
64.41213594,-0.438601255,0.02687807,0.003054326
64.46213594,-0.287717521,0.087964594,-0.222965822
64.51213594,-0.076358154,0.142942473,-0.145996794
64.56213594,0.042760566,0.079412483,-0.039095376
64.61213594,0.019547688,-0.020769419,0.067195177
64.66213594,0.142942473,-0.018936822,0.092240654
64.71213594,0.069027774,0.015271631,0.138055548
64.76213594,0.202196389,-0.022602014,0.040927973
64.81213594,-0.255341679,0.058643065,0.212581098
64.86213594,-0.007330383,-0.02687807,0.226020142
64.91213594,0.215024561,-0.133779496,0.199142069
64.96213594,-0.36102137,-0.188146502,0.148440257
65.01213594,-0.265726388,-0.071471237,0.19058995
65.06213594,-0.029932396,-0.163101018,0.149661988
65.11213594,-0.062308256,-0.090408057,0.072692961
65.16213594,-0.029932396,-0.032375857,-0.034208454
65.21213594,0.269391567,0,-0.146607652
65.26213594,0.108123146,0.051312681,-0.146607652
65.31213594,0.275500238,-0.062919118,-0.208305046
65.36213594,0.141720742,-0.069027774,-0.70860368
65.41213594,0.298713118,0.197309479,-0.06963864
65.46213594,0.1001819,-0.105679691,0.084910266
65.51213594,-0.38728857,-0.004276057,0.017104227
65.56213594,-0.365297407,0.087964594,-0.125838235
65.61213594,-0.029321533,0.209526777,-0.199142069
65.66213594,-0.047036625,0.182648704,-0.087964594
65.71213594,0.05375614,-0.054977871,-0.029932396
65.76213594,0.047647487,0.022602014,0.043371432
65.81213594,-0.132557765,-0.078801617,0.01038471
65.86213594,0.124005646,0.005497787,0.029932396
65.91213594,0.086131997,0.084910266,-0.01038471
65.96213594,-0.306654364,-0.000610865,0.290771842
66.01213594,0.408668846,0.001832596,0.05009095
66.06213594,-0.234572262,-0.069027774,-0.01160644
66.11213594,-0.376293004,-0.048869219,0.084910266
66.16213594,-0.016493361,-0.119729586,0.070860371
66.21213594,-0.039706241,-0.135001212,0.064751714
66.26213594,-0.04642576,-0.02321288,-0.083077677
66.31213594,0.289550126,0.001832596,-0.097127572
66.36213594,0.188146502,0.029321533,-0.202807263
66.41213594,0.186313897,0,-0.245567828
66.46213594,-0.048869219,0.002443461,-0.324369431
66.51213594,0.10445796,0.08857546,-0.007941248
66.56213594,0.360410482,-0.025045475,-0.13072516
66.61213594,-0.338419348,0.062308256,0.005497787
66.66213594,-0.402560204,0.07696902,-0.206472457
66.71213594,-0.051923547,0.086742863,-0.108734012
66.76213594,0.01038471,0.047036625,-0.04642576
66.81213594,-0.045814894,-0.064751714,0.042760566
66.86213594,-0.033597589,0.03481932,0.083077677
66.91213594,0.005497787,0.021380283,0.177761793
66.96213594,0.158824965,0.041538838,0.091629788
67.01213594,-0.254730821,0.050701816,0.100792766
67.06213594,-0.553443909,0.183259577,0.147218525
67.11213594,0.450207681,-0.039095376,0.109955743
67.16213594,-0.235793978,-0.193033412,0.143553332
67.21213594,-0.101403631,-0.221133217,0.184481308
67.26213594,0.097127572,-0.199752942,0.098960169
67.31213594,0.135612086,-0.162490159,-0.008552114
67.36213594,0.015882496,-0.116675265,0.015271631
67.41213594,0.227241874,-0.015882496,-0.093462385
67.46213594,0.409279704,0.008552114,-0.068416908
67.51213594,0.332310706,0.049480084,-0.207083315
67.56213594,0.364075691,0.062308256,-0.454483748
67.61213594,-0.155159771,0.228463605,-0.149661988
67.66213594,0.446542501,-0.054367006,0.067806043
67.71213594,-0.163711891,0.006719518,0.064751714
67.76213594,-0.46364671,0.072082102,-0.053145275
67.81213594,-0.153327182,0.091018923,-0.129503429
67.86213594,0.026267206,0.160046697,0.027488936
67.91213594,0.129503429,-0.01282817,0.048258353
67.96213594,-0.06536258,0.067195177,0.155159771
68.01213594,0.135612086,-0.050701816,0.121562183
68.06213594,0.120340452,0.062919118,0.09285152
68.11213594,-0.257174254,-0.087353729,0.094684117
68.16213594,-0.201585531,0.219300628,0.02687807
68.21213594,0.105068825,-0.141720742,0.076358154
68.26213594,-0.396451533,-0.090408057,0.120951317
68.31213594,-0.186313897,-0.161879286,0.159435824
68.36213594,-0.023823744,-0.168598801,0.019547688
68.41213594,-0.009162978,-0.131336033,-0.045814894
68.46213594,0.081855945,-0.058643065,-0.133779496
68.51213594,0.328034639,0.020769419,-0.121562183
68.56213594,0.275500238,0.01160644,-0.124616511
68.61213594,0.349414915,0.004886922,-0.257174254
68.66213594,0.024434609,0.080023348,-0.250454754
68.71213594,0.257785142,0.128281698,0.091018923
68.76213594,0.232739657,0.015882496,-0.009773844
68.81213594,-0.599258781,0.033597589,0.051312681
68.86213594,-0.397673279,0.086131997,-0.124616511
68.91213594,0.010995574,0.084910266,-0.0580322
68.96213594,0.06963864,0.028099801,0.032375857
69.01213594,0.125227377,-0.031154128,0.045814894
69.06213594,0.071471237,-0.037262779,0.105068825
69.11213594,0.05375614,0.017715093,0.127059966
69.16213594,0.22357668,0.009162978,0.07696902
69.21213594,-0.401949346,-0.087353729,0.172263995
69.26213594,-0.149051115,0.159435824,0.226020142
69.31213594,0.089186326,-0.071471237,0.10751228
69.36213594,-0.42394048,-0.051312681,0.157603234
69.41213594,-0.17898351,-0.130114302,0.102014497
69.46213594,-0.080023348,-0.091629788,0.06536258
69.51213594,-0.004276057,-0.102014497,-0.039095376
69.56213594,0.01038471,-0.062919118,-0.082466811
69.61213594,0.170431405,0.01282817,-0.191811681
69.66213594,0.11178834,0.133779496,-0.249843881
69.71213594,0.229074463,0.147218525,-0.26816985
69.76213594,0.122783914,0.033597589,-0.401338458
69.81213594,-0.236404851,0.229074463,0.047647487
69.86213594,0.443488181,-0.170431405,0.051923547
69.91213594,-0.288328409,-0.010995574,0.127059966
69.96213594,-0.31459561,-0.014049901,-0.117896989
70.01213594,-0.072692961,0.072692961,-0.128281698
70.06213594,-0.012217305,0.06536258,-0.020769419
70.11213594,0.102625363,-0.005497787,0.042760566
70.16213594,0.010995574,-0.01038471,0.101403631
70.21213594,0.054977871,0.01160644,0.153327182
70.26213594,0.248622149,0.067806043,0.103236228
70.31213594,0.182648704,-0.051923547,0.159435824
70.36213594,-0.179594383,-0.023823744,0.363464832
70.41213594,0.333532423,-0.063529983,0.22174409
70.46213594,-0.324980319,-0.090408057,0.114231803
70.51213594,-0.483194411,-0.03848451,0.085521132
70.56213594,-0.121562183,-0.150883719,0.067195177
70.61213594,-0.037262779,-0.073914692,-0.018936822
70.66213594,-0.042760566,-0.015882496,-0.050701816
70.71213594,0.329867244,0.039095376,-0.232739657
70.76213594,0.202807263,0.073303826,-0.222965822
70.81213594,0.265115529,0.0421497,-0.390342891
70.86213594,0.117286131,-0.021380283,-0.408668846
70.91213594,0.124005646,0.106290549,0.169209674
70.96213594,0.279776275,-0.128281698,-0.051923547
71.01213594,-0.357967019,0.014049901,0.01282817
71.06213594,-0.341473669,0.036651913,-0.197920337
71.11213594,0.000610865,0.099571034,-0.144775063
71.16213594,-0.03848451,0.004276057,0.01160644
71.21213594,0.037873644,-0.023823744,0.085521132
71.26213594,-0.014049901,-0.033597589,0.193644285
71.31213594,0.040927973,-0.009162978,0.203418121
71.36213594,0.361632228,-0.035430186,0.142942473
71.41213594,0.276721954,-0.036041051,0.243735239
71.46213594,-0.018325957,-0.120340452,0.51007247
71.51213594,0.078190751,0.002443461,0.160657555
71.56213594,-0.455094606,-0.053145275,0.039095376
71.61213594,-0.352469236,0.050701816,0.042760566
71.66213594,-0.065973446,-0.080023348,0.067806043
71.71213594,-0.025656341,-0.029321533,0.097738437
71.76213594,0.117286131,-0.029321533,-0.057421334
71.81213594,0.182037845,0.11911872,-0.240680903
71.86213594,0.098960169,0.30482176,-0.185703039
71.91213594,0.499076903,0.006108652,-0.422107875
71.96213594,0.277943701,0.179594383,-0.313373864
72.01213594,0.213191971,-0.010995574,0.065973446
72.06213594,0.045204028,-0.151494578,0.076358154
72.11213594,-0.445931643,-0.087353729,-0.099571034
72.16213594,-0.280387133,0.037262779,-0.166766211
72.21213594,-0.077579886,0.102625363,-0.124005646
72.26213594,-0.028099801,0.083077677,0.028099801
72.31213594,0.029321533,-0.032986723,0.147829384
72.36213594,0.043371432,-0.066584311,0.189368233
72.41213594,0.007330383,0.077579886,0.149051115
72.46213594,0.329867244,-0.015882496,-0.014660766
72.51213594,-0.416610092,-0.015882496,0.227241874
72.56213594,0.226631001,0.105068825,0.213802829
72.61213594,0.015271631,-0.095294975,0.078190751
72.66213594,-0.461203247,-0.096516706,0.137444675
72.71213594,-0.08124508,-0.078801617,0.157603234
72.76213594,-0.01282817,-0.122783914,0.110566609
72.81213594,-0.051312681,-0.0421497,-0.005497787
72.86213594,0.043982297,0.056199603,-0.111177474
72.91213594,0.365908295,0.048869219,-0.150272846
72.96213594,0.204028994,0.130114302,-0.10445796
73.01213594,0.343917131,-0.064140849,-0.432492584
73.06213594,-0.209526777,0.224187538,-0.008552114
73.11213594,0.62919122,-0.056810468,-0.10445796
73.16213594,-0.170431405,0.01282817,-0.036041051
73.21213594,-0.496022582,0.028099801,-0.132557765
73.26213594,-0.213191971,0.09285152,-0.158214092
73.31213594,-0.056199603,0.048869219,-0.026267206
73.36213594,-0.060475659,0.017715093,0.015271631
73.41213594,-0.0580322,-0.087964594,0.064751714
73.46213594,0.002443461,-0.021991149,0.145996794
73.51213594,0.17715092,-0.028099801,0.109344877
73.56213594,0.209526777,0.01282817,0.01160644
73.61213594,-0.508239865,0.022602014,0.128892571
73.66213594,0.343306273,0.051923547,0.102625363
73.71213594,-0.120951317,-0.23518312,0.017715093
73.76213594,-0.504574716,-0.133779496,0.087353729
73.81213594,-0.051923547,-0.12339478,0.015271631
73.86213594,0.014660766,-0.116675265,-0.029932396
73.91213594,-0.040927973,-0.081855945,-0.117286131
73.96213594,0.06536258,0.075136423,-0.156381503
74.01213594,0.444099039,-0.015271631,-0.200974673
74.06213594,0.160046697,0.167987943,-0.056199603
74.11213594,0.218689755,0.064140849,-0.313373864
74.16213594,-0.309708685,0.125227377,0.133168623
74.21213594,0.687223375,-0.048258353,-0.000610865
74.26213594,0.060475659,0.054977871,0.094684117
74.31213594,-0.351247519,0.032375857,-0.054977871
74.36213594,-0.129503429,0.134390354,-0.130114302
74.41213594,-0.102014497,0.055588737,-0.083688542
74.46213594,-0.055588737,-0.037873644,0.04642576
74.51213594,-0.044593163,-0.01038471,-0.013439035
74.56213594,-0.158214092,0.062919118,0.114842668
74.61213594,0.226020142,-0.064140849,-0.045204028
74.66213594,0.115453534,0.19058995,-0.091629788
74.71213594,-0.108123146,-0.110566609,0.230296195
74.76213594,0.25167647,0.020158554,0.230907068
74.81213594,0.019547688,-0.126449108,0.057421334
74.86213594,-0.508850753,-0.031154128,0.129503429
74.91213594,-0.084910266,-0.091629788,0.106290549
74.96213594,0.106901415,-0.124616511,0.125227377
75.01213594,0.12339478,-0.086131997,0.091629788
75.06213594,0.119729586,0.05375614,-0.097127572
75.11213594,0.202196389,0.012217305,-0.124616511
75.16213594,0.147829384,-0.003054326,-0.262672067
75.21213594,0.383012503,-0.050701816,-0.359188765
75.26213594,-0.049480084,0.078190751,-0.043371432
75.31213594,0.419664413,-0.037262779,0.127670839
75.36213594,-0.161268428,-0.017715093,0.127670839
75.41213594,-0.68233645,0.039706241,-0.103847094
75.46213594,-0.296269655,0.100792766,-0.199752942
75.51213594,-0.049480084,0.106290549,-0.080634214
75.56213594,-0.02321288,-0.006719518,-0.060475659
75.61213594,-0.111177474,-0.164933622,-0.102014497
75.66213594,-0.043982297,-0.098349303,0.048869219
75.71213594,0.202196389,0.019547688,-0.036041051
75.76213594,0.12339478,0.186313897,-0.105679691
75.81213594,-0.149661988,0.01160644,0.120340452
75.86213594,0.286495805,-0.020158554,0.230296195
75.91213594,-0.068416908,-0.126449108,0.047647487
75.96213594,-0.621860802,-0.037262779,0.127670839
76.01213594,-0.207083315,-0.05009095,0.097738437
76.06213594,-0.06169739,-0.11178834,0.094073251
76.11213594,-0.051312681,-0.080023348,0.040927973
76.16213594,0.032986723,-0.06536258,0.062919118
76.21213594,0.288328409,-0.019547688,0.013439035
76.26213594,0.295658767,0.045814894,-0.136222944
76.31213594,0.064140849,-0.02321288,-0.352469236
76.36213594,-0.581543684,0.095294975,-0.012217305
76.41213594,0.435546935,-0.014660766,-0.091629788
76.46213594,-0.021991149,0.091018923,0.004886922
76.51213594,-0.276111096,0.065973446,-0.224798411
76.56213594,-0.225409269,0.25167647,-0.323758572
76.61213594,-0.06169739,0.117896989,-0.207083315
76.66213594,0.004276057,0.017715093,-0.040317107
76.71213594,0.094684117,-0.020769419,-0.004276057
76.76213594,0.135001212,-0.105679691,0.147829384
76.81213594,0.17898351,-0.017104227,0.160046697
76.86213594,0.19058995,0.022602014,0.001832596
76.91213594,-0.51984632,-0.082466811,0.168598801
76.96213594,0.229685336,0.03848451,0.132557765
77.01213594,0.141720742,-0.156992361,0.139277279
77.06213594,-0.320704252,-0.103847094,0.209526777
77.11213594,-0.217468023,-0.063529983,0.141720742
77.16213594,-0.0842994,-0.087964594,0.086131997
77.21213594,0.004886922,-0.06536258,-0.021991149
77.26213594,0.00122173,0.040927973,-0.078801617
77.31213594,0.274278492,0.091629788,-0.169820532
77.36213594,0.431270868,0.041538838,-0.188146502
77.41213594,0.309097827,-0.041538838,-0.217468023
77.46213594,-0.180205241,0.091018923,-0.291993588
77.51213594,0.014660766,0.125838235,0.205861583
77.56213594,0.306654364,-0.032375857,0.074525557
77.61213594,-0.420886159,-0.022602014,0.206472457
77.66213594,-0.236404851,0.098960169,-0.150272846
77.71213594,-0.03848451,0.125838235,-0.039706241
77.76213594,-0.040317107,0.048869219,-0.044593163
77.81213594,-0.106901415,-0.076358154,0.127670839
77.86213594,0.036651913,0.015882496,0.072082102
77.91213594,-0.073914692,-0.114231803,0.15393804
77.96213594,0.279776275,-0.167987943,0.039706241
78.01213594,-0.153327182,0,0.064140849
78.06213594,-0.214413703,0.114842668,0.11911872
78.11213594,0.323758572,-0.069027774,0.062308256
78.16213594,-0.480750948,-0.080023348,0.156992361
78.21213594,-0.277943701,-0.091629788,0.144775063
78.26213594,-0.031764992,-0.093462385,0.097738437
78.31213594,-0.037873644,-0.09590584,0.004276057
78.36213594,-0.028710667,0.087353729,-0.037262779
78.41213594,0.353690982,0.077579886,-0.212581098
78.46213594,0.293826193,0.160046697,-0.147218525
78.51213594,0.249233022,-0.00122173,-0.240070045
78.56213594,-0.031764992,0.061086524,-0.356745303
78.61213594,-0.036651913,0.192422554,0.138055548
78.66213594,0.51007247,-0.15393804,0.097738437
78.71213594,-0.257174254,0.06169739,0.143553332
78.76213594,-0.293215305,0.086131997,-0.0842994
78.81213594,-0.06963864,0.144164205,-0.059864793
78.86213594,-0.081855945,0.053145275,-0.007330383
78.91213594,0.029321533,-0.040317107,0.09285152
78.96213594,-0.016493361,-0.036651913,0.100792766
79.01213594,-0.062919118,-0.032986723,0.133779496
79.06213594,0.255341679,-0.05009095,0.02321288
79.11213594,0.352469236,-0.03848451,0.067806043
79.16213594,-0.209526777,-0.041538838,0.356745303
79.21213594,0.299323976,-0.06169739,0.164322749
79.26213594,-0.277332813,-0.08124508,0.099571034
79.31213594,-0.493579119,-0.004886922,0.122783914
79.36213594,-0.126449108,-0.052534413,0.058643065
79.41213594,-0.039095376,-0.027488936,0.037873644
79.46213594,0.009773844,0.004276057,-0.093462385
79.51213594,0.022602014,0.114842668,-0.194866017
79.56213594,0.071471237,0.021991149,-0.175929189
79.61213594,0.405614525,0.091018923,-0.226631001
79.66213594,0.364075691,-0.06169739,-0.372627795
79.71213594,0.094684117,0.218078896,0.213191971
79.76213594,0.458148927,-0.214413703,0.06536258
79.81213594,-0.302989155,0.015271631,0.078801617
79.86213594,-0.496022582,0.076358154,-0.21197024
79.91213594,-0.136222944,0.194255143,-0.157603234
79.96213594,-0.01038471,0.035430186,-0.056199603
80.01213594,-0.102014497,-0.031764992,0.031764992
80.06213594,-0.00122173,-0.054977871,0.035430186
80.11213594,-0.075136423,-0.000610865,0.078190751
80.16213594,0.173485726,-0.012217305,0.003054326
80.21213594,0.147218525,-0.06169739,0.014049901
80.26213594,-0.227241874,-0.080634214,0.273667634
80.31213594,0.411112309,-0.006719518,0.094684117
80.36213594,-0.220522359,-0.081855945,0.048869219
80.41213594,-0.474642307,0.014049901,0.102014497
80.46213594,-0.095294975,-0.106290549,0.023823744
80.51213594,-0.097738437,-0.091629788,0.020158554
80.56213594,-0.031764992,-0.096516706,-0.080634214
80.61213594,0.131336033,0.11178834,-0.12339478
80.66213594,0.249843881,-0.017715093,-0.259617716
80.71213594,0.216857165,0.171042264,-0.232128799
80.76213594,0.071471237,0.026267206,-0.461203247
80.81213594,-0.319482535,0.201585531,0.125838235
80.86213594,0.604145706,-0.133168623,0.064140849
80.91213594,-0.194866017,0.019547688,0.145385921
80.96213594,-0.331699818,0.090408057,-0.021991149
81.01213594,-0.102625363,0.135612086,-0.045814894
81.06213594,0.04642576,0.068416908,0.032986723
81.11213594,-0.029321533,0.014660766,0.086742863
81.16213594,0.12339478,-0.014660766,0.12339478
81.21213594,-0.007941248,0.022602014,0.147218525
81.26213594,0.218689755,0.022602014,0.069027774
81.31213594,0.139277279,0.055588737,-0.065973446
81.36213594,-0.265726388,-0.019547688,0.233961389
81.41213594,0.445320755,-0.007941248,0.115453534
81.46213594,-0.13072516,-0.053145275,0.044593163
81.51213594,-0.392786354,-0.102625363,0.039706241
81.56213594,-0.19853121,-0.140499011,0.044593163
81.61213594,-0.115453534,-0.138055548,-0.017104227
81.66213594,-0.113010071,-0.092240654,-0.064140849
81.71213594,0.030543262,0.029321533,-0.117896989
81.76213594,0.17898351,-0.003054326,-0.148440257
81.81213594,0.249233022,0.091629788,-0.167377085
81.86213594,0.094073251,-0.022602014,-0.271224171
81.91213594,-0.307265222,0.145996794,0.184481308
81.96213594,0.661567032,-0.057421334,0.016493361
82.01213594,-0.136222944,0.073914692,0.039095376
82.06213594,-0.36102137,0.060475659,-0.125227377
82.11213594,-0.15393804,0.145996794,-0.127670839
82.16213594,-0.084910266,0.028099801,0.014049901
82.21213594,-0.078190751,-0.019547688,0.059864793
82.26213594,0.004276057,-0.05375614,0.013439035
82.31213594,0.064751714,0.030543262,0.119729586
82.36213594,0.34452799,-0.029321533,0.02687807
82.41213594,0.119729586,-0.007941248,0.086131997
82.46213594,-0.552222192,-0.040927973,0.115453534
82.51213594,0.60597831,-0.015882496,0.102625363
82.56213594,-0.077579886,-0.153327182,0.09285152
82.61213594,-0.169209674,-0.139888138,0.164322749
82.66213594,0.050701816,-0.147218525,0.04642576
82.71213594,-0.078801617,-0.041538838,-0.034208454
82.76213594,-0.214413703,0.04642576,-0.142942473
82.81213594,-0.003054326,0.085521132,-0.290160984
82.86213594,-0.051312681,0.049480084,-0.249233022
82.91213594,0.031154128,0.084910266,-0.179594383
82.96213594,0.204028994,-0.03848451,-0.379347324
83.01213594,0.364075691,0.215024561,0.032375857
83.06213594,0.243735239,-0.250454754,0.197309479
83.11213594,-0.073914692,-0.155770645,0.129503429
83.16213594,-0.539394021,-0.079412483,0.02321288
83.21213594,-0.168598801,0.160657555,-0.083688542
83.26213594,0.019547688,0.098960169,-0.030543262
83.31213594,0.136833817,0.009773844,-0.013439035
83.36213594,0.144775063,-0.05375614,0.071471237
83.41213594,0.006108652,-0.073914692,0.145385921
83.46213594,0.106901415,0.019547688,0.12339478
83.51213594,0.392786354,0.097738437,-0.070249505
83.56213594,0.186313897,-0.219911486,0.485027015
83.61213594,0.171042264,-0.050701816,0.197309479
83.66213594,-0.205250725,-0.078801617,-0.085521132
83.71213594,-0.43371433,0.025045475,0.018325957
83.76213594,0.01038471,-0.101403631,0.069027774
83.81213594,-0.036651913,-0.017104227,0.138055548
83.86213594,-0.030543262,-0.004886922,-0.056199603
83.91213594,-0.056810468,0.192422554,-0.19058995
83.96213594,-0.064751714,0.140499011,-0.196698606
84.01213594,0.226020142,0.135001212,-0.436768651
84.06213594,0.064140849,-0.028710667,-0.324369431
84.11213594,0.159435824,0.126449108,0.060475659
84.16213594,0.322536856,-0.113010071,-0.031154128
84.21213594,-0.411723167,-0.044593163,-0.039706241
84.26213594,-0.250454754,0.074525557,-0.183870435
84.31213594,-0.067195177,0.155159771,-0.076358154
84.36213594,0.069027774,-0.00122173,0.086742863
84.41213594,-0.054367006,-0.148440257,0.16554448
84.46213594,0.01038471,-0.040927973,0.201585531
84.51213594,0.121562183,-0.042760566,0.112399206
84.56213594,0.218689755,0.080634214,0.009162978
84.61213594,-0.293826193,-0.072692961,0.071471237
84.66213594,0.059864793,0.136222944,0.114842668
84.71213594,0.048258353,-0.084910266,-0.027488936
84.76213594,-0.379347324,-0.059253927,0.158214092
84.81213594,-0.015271631,-0.13072516,0.170431405
84.86213594,0.129503429,-0.120340452,0.163711891
84.91213594,0.010995574,-0.056199603,0.0580322
84.96213594,0.073914692,0.047647487,-0.040927973
85.01213594,0.339030206,-0.047036625,-0.262672067
85.06213594,-0.003054326,0.026267206,-0.237015709
85.11213594,0.364075691,0.059864793,-0.46364671
85.16213594,-0.216246292,0.1423316,-0.065973446
85.21213594,0.205861583,-0.05009095,0.150272846
85.26213594,-0.01282817,0.015882496,0.124616511
85.31213594,-0.459981531,0.034208454,-0.049480084
85.36213594,-0.242513508,0.119729586,-0.155159771
85.41213594,-0.120340452,0.097738437,-0.103847094
85.46213594,-0.12339478,-0.000610865,0.024434609
85.51213594,0.072692961,-0.039095376,0.08857546
85.56213594,0.094073251,-0.087353729,0.231517926
85.61213594,0.1160644,-0.083077677,0.241291776
85.66213594,0.296269655,0.174707457,-0.135001212
85.71213594,-0.076358154,0.005497787,0.172263995
85.76213594,0.524122357,0.058643065,0.08124508
85.81213594,0.080023348,-0.021380283,-0.051312681
85.86213594,-0.33780849,-0.029932396,0.048258353
85.91213594,-0.128281698,-0.056810468,0.040927973
85.96213594,0.003665192,-0.091629788,0.042760566
86.01213594,-0.004276057,-0.113620937,0.01038471
86.06213594,0.085521132,-0.018325957,-0.136833817
86.11213594,0.056810468,-0.021991149,-0.127059966
86.16213594,0.100792766,0.037873644,-0.260839462
86.21213594,-0.342695415,0.097738437,-0.282219738
86.26213594,-0.009773844,0.177761793,0.103236228
86.31213594,0.386677712,-0.073914692,-0.089797191
86.36213594,-0.309097827,0.009162978,-0.013439035
86.41213594,-0.186924771,0.083077677,-0.164933622
86.46213594,0.025045475,0.070860371,-0.126449108
86.51213594,0.003054326,0.006108652,0.047647487
86.56213594,-0.139888138,-0.03848451,0.072692961
86.61213594,0.157603234,0.003054326,0.09285152
86.66213594,0.11911872,-0.032986723,0.120340452
86.71213594,0.127670839,-0.08857546,0.049480084
86.76213594,-0.695164621,-0.152716309,0.049480084
86.81213594,0.167987943,0.174096599,0.004886922
86.86213594,0.227241874,-0.164322749,0.08124508
86.91213594,-0.087964594,-0.142942473,0.127059966
86.96213594,-0.22357668,-0.087353729,0.105068825
87.01213594,-0.112399206,-0.020158554,0.025656341
87.06213594,-0.162490159,-0.024434609,0.017715093
87.11213594,-0.10445796,-0.013439035,-0.032986723
87.16213594,0.108734012,0.03481932,-0.055588737
87.21213594,0.296269655,-0.01038471,-0.126449108
87.26213594,0.265115529,0.040927973,-0.224798411
87.31213594,-0.417831838,0.116675265,-0.248622149
87.36213594,0.361632228,0.146607652,-0.073914692
87.41213594,0.415999234,0.01038471,-0.032986723
87.46213594,-0.131336033,-0.063529983,0.016493361
87.51213594,-0.1160644,0.062919118,-0.117896989
87.56213594,-0.040927973,0.01160644,-0.03848451
87.61213594,0.015882496,-0.150272846,0.051312681
87.66213594,0.040317107,-0.255952537,0.151494578
87.71213594,0.128892571,0.06963864,0.145996794
87.76213594,0.142942473,0.042760566,0.182648704
87.81213594,0.174707457,0.217468023,0.065973446
87.86213594,-0.132557765,0.04642576,0.133168623
87.91213594,-0.180816114,0.150272846,0.215024561
87.96213594,0.156992361,-0.019547688,0.075136423
88.01213594,-0.414777488,-0.086742863,0.166155353
88.06213594,-0.152105451,-0.105068825,0.147218525
88.11213594,-0.039706241,-0.133168623,0.105068825
88.16213594,-0.059253927,-0.089186326,0.021991149
88.21213594,0.044593163,-0.070860371,-0.124005646
88.26213594,0.207083315,0.08124508,-0.239459172
88.31213594,0.252287358,-0.008552114,-0.195476875
88.36213594,0.141720742,-0.003665192,-0.324369431
88.41213594,-0.357967019,0.087353729,-0.257785142
88.46213594,0.080634214,0.129503429,0.095294975
88.51213594,0.0842994,0.112399206,0.065973446
88.56213594,-0.450818539,0.098960169,0.102014497
88.61213594,-0.132557765,0.127670839,-0.099571034
88.66213594,0.00122173,0.058643065,-0.013439035
88.71213594,0.114842668,-0.060475659,0.025656341
88.76213594,-0.044593163,-0.056810468,0.092240654
88.81213594,0.239459172,-0.023823744,0.093462385
88.86213594,0.147829384,0.065973446,0.185703039
88.91213594,-0.035430186,0.036041051,0.084910266
88.96213594,-0.729373097,-0.077579886,0.137444675
89.01213594,0.41050145,0.023823744,0.152716309
89.06213594,-0.226631001,-0.106901415,0.208305046
89.11213594,-0.335975885,-0.074525557,0.313984722
89.16213594,-0.114231803,-0.122783914,0.200974673
89.21213594,-0.120340452,-0.072082102,0.145996794
89.26213594,-0.062308256,-0.061086524,-0.03848451
89.31213594,0.169820532,0.02321288,-0.17898351
89.36213594,0.235793978,0.02321288,-0.233961389
89.41213594,0.294437051,-0.044593163,-0.468533635
89.46213594,0.27488935,0.086131997,-0.746477306
89.51213594,0.388510287,0.246178687,-0.237015709
89.56213594,-0.191811681,-0.004886922,0.252287358
89.61213594,-0.518013716,-0.039706241,0.09285152
89.66213594,-0.489303052,0.042760566,-0.054367006
89.71213594,-0.240070045,0.142942473,-0.059864793
89.76213594,-0.04642576,0.105068825,-0.018936822
89.81213594,0.103847094,0.055588737,-0.02321288
89.86213594,0.252287358,0.006719518,0.091018923
89.91213594,0.310930401,0.057421334,0.152716309
89.96213594,0.315206468,0.028710667,0.000610865
90.01213594,-0.167377085,-0.010995574,0.280387133
90.06213594,-0.086742863,-0.040927973,0.274278492
90.11213594,0.060475659,-0.103236228,0.040317107
90.16213594,-0.475253165,-0.002443461,0.09590584
90.21213594,-0.201585531,0.03848451,0.129503429
90.26213594,-0.00122173,-0.04642576,0.109344877
90.31213594,0.01160644,-0.036041051,0.056810468
90.36213594,0.124005646,-0.056810468,-0.108734012
90.41213594,0.328645498,0.020769419,-0.098960169
90.46213594,0.180816114,-0.019547688,-0.186313897
90.51213594,0.439822972,-0.012217305,-0.415999234
90.56213594,-0.137444675,0.029321533,-0.156992361
90.61213594,0.297491372,-0.093462385,-0.074525557
90.66213594,-0.113620937,-0.045204028,-0.030543262
90.71213594,-0.390342891,-0.028099801,-0.222354949
90.76213594,-0.0842994,0.149661988,-0.248011291
90.81213594,0.041538838,0.108123146,-0.115453534
90.86213594,0.131946892,0.055588737,0.039095376
90.91213594,0.194866017,0.007941248,0.073914692
90.96213594,0.208915919,-0.064751714,0.129503429
91.01213594,0.12339478,-0.034208454,0.105068825
91.06213594,0.288939267,-0.106901415,0.0421497
91.11213594,-0.387899429,-0.017715093,0.230907068
91.16213594,0.285884947,0.036041051,0.10751228
91.21213594,-0.265115529,-0.010995574,0.143553332
91.26213594,-0.445931643,0.019547688,0.155159771
91.31213594,-0.122783914,-0.017715093,0.102014497
91.36213594,-0.070860371,-0.04642576,0.082466811
91.41213594,-0.001832596,-0.059253927,-0.016493361
91.46213594,0.1001819,0.0421497,-0.115453534
91.51213594,0.326202035,-0.034208454,-0.252898216
91.56213594,0.21013765,0.002443461,-0.213191971
91.61213594,0.487470478,0.025656341,-0.671951771
91.66213594,0.336586744,0.131336033,-0.29810223
91.71213594,0.102625363,-0.140499011,0.094684117
91.76213594,-0.208305046,-0.066584311,0.131336033
91.81213594,-0.567493796,0.035430186,-0.034208454
91.86213594,-0.194866017,0.130114302,-0.097738437
91.91213594,-0.093462385,0.181426972,-0.013439035
91.96213594,0.1160644,-0.050701816,0.023823744
92.01213594,-0.01160644,-0.048869219,0.13072516
92.06213594,0.081855945,-0.10751228,0.211359382
92.11213594,0.286495805,0.003054326,0.067195177
92.16213594,0.269391567,-0.004276057,0.090408057
92.21213594,0.013439035,-0.047647487,0.209526777
92.26213594,0.113010071,-0.06963864,-0.036041051
92.31213594,-0.565050364,-0.032375857,-0.024434609
92.36213594,-0.257174254,-0.001832596,0.094684117
92.41213594,0.033597589,-0.124005646,0.064140849
92.46213594,-0.090408057,-0.076358154,0.041538838
92.51213594,0.081855945,0.004886922,-0.10751228
92.56213594,0.217468023,0.087353729,-0.182037845
92.61213594,0.061086524,0.06963864,-0.159435824
92.66213594,0.321925998,0.025045475,-0.326202035
92.71213594,-0.306654364,0.11911872,-0.156381503
92.76213594,0.2846632,-0.055588737,-0.01038471
92.81213594,0.08124508,0.032986723,0.015882496
92.86213594,-0.288328409,-0.047036625,-0.055588737
92.91213594,-0.007330383,0.042760566,-0.097738437
92.96213594,0.070249505,0.015882496,0.004276057
93.01213594,-0.003665192,-0.031764992,0.055588737
93.06213594,-0.136833817,-0.010995574,0.06536258
93.11213594,0.320093393,-0.015271631,0.110566609
93.16213594,0.040317107,0.073303826,0.048869219
93.21213594,0.259006858,0.041538838,-0.058643065
93.26213594,0.075136423,-0.245567828,0.218689755
93.31213594,-0.016493361,0.042760566,0.26816985
93.36213594,0.017104227,-0.02687807,0.016493361
93.41213594,-0.618806481,0.059864793,0.075136423
93.46213594,-0.317649931,-0.004276057,0.025656341
93.51213594,-0.039095376,-0.091629788,0.093462385
93.56213594,-0.136222944,-0.036651913,0.029932396
93.61213594,-0.214413703,0.098960169,-0.06169739
93.66213594,0.32131511,0.067195177,-0.230296195
93.71213594,0.248622149,0.047647487,-0.112399206
93.76213594,0.47036624,0.057421334,-0.569937289
93.81213594,-0.139277279,0.240070045,-0.174707457
93.86213594,0.47036624,-0.109344877,-0.032986723
93.91213594,-0.181426972,-0.085521132,0.075136423
93.96213594,-0.524122357,-0.076358154,-0.017715093
94.01213594,-0.094073251,0.074525557,-0.085521132
94.06213594,-0.056199603,0.012217305,0.028099801
94.11213594,0.039095376,-0.054977871,0.051312681
94.16213594,-0.091018923,-0.059864793,0.11178834
94.21213594,0.1160644,-0.043371432,0.12339478
94.26213594,0.147829384,-0.007330383,0.114842668
94.31213594,0.386677712,0.068416908,0.056199603
94.36213594,-0.091629788,-0.127670839,0.461203247
94.41213594,0.015271631,0.115453534,0.270613313
94.46213594,-0.186924771,0.057421334,0.15393804
94.51213594,-0.540004849,-0.05009095,0.133168623
94.56213594,-0.059253927,-0.182648704,0.167987943
94.61213594,0.009162978,-0.194866017,0.147829384
94.66213594,0.05375614,-0.135001212,0.02321288
94.71213594,0.138666406,0.029932396,-0.109344877
94.76213594,0.171653137,0.056810468,-0.227852732
94.81213594,0.284052342,0.085521132,-0.340251952
94.86213594,0.387899429,0.069027774,-0.571769893
94.91213594,0.017715093,0.308486939,-0.069027774
94.96213594,0.297491372,-0.09285152,0.03848451
95.01213594,-0.429438263,0.098960169,0.014049901
95.06213594,-0.462424994,0.097127572,-0.045204028
95.11213594,-0.221133217,0.160657555,0.030543262
95.16213594,-0.111177474,0.015882496,0.050701816
95.21213594,0.054367006,-0.047036625,0.098349303
95.26213594,0.058643065,-0.039706241,0.192422554
95.31213594,0.05375614,-0.103847094,0.248622149
95.36213594,0.378125578,-0.073303826,0.115453534
95.41213594,0.572380722,0.060475659,0.127059966
95.46213594,0.41722095,-0.081855945,0.627969444
95.51213594,-0.145996794,-0.042760566,0.261450321
95.56213594,-0.623693407,0.062919118,0.004276057
95.61213594,-0.783129215,0.125838235,-0.03848451
95.66213594,-0.253509074,-0.091629788,-0.006108652
95.71213594,0.025656341,-0.154548913,-0.020158554
95.76213594,0.078801617,-0.105679691,-0.113010071
95.81213594,0.192422554,0.10445796,-0.218689755
95.86213594,0.254119933,0.069027774,-0.204639852
95.91213594,0.505796433,0.112399206,-0.419664413
95.96213594,0.68233645,0.09590584,-0.541226625
96.01213594,0.394618958,0.238237441,-0.004886922
96.06213594,0.044593163,-0.170431405,0.052534413
96.11213594,-0.666453958,-0.135001212,0.027488936
96.16213594,-0.545502663,0.032375857,0.00122173
96.21213594,-0.015882496,0.04642576,-0.006719518
96.26213594,0.057421334,-0.064751714,0.147218525
96.31213594,0.103236228,-0.130114302,0.147218525
96.36213594,0.036041051,-0.072082102,0.268780708
96.41213594,0.082466811,-0.03848451,0.138055548
96.46213594,0.166766211,0.117286131,0.072082102
96.51213594,-0.238848314,-0.164322749,0.117896989
96.56213594,0.150272846,0.194255143,0.103236228
96.61213594,0.057421334,-0.027488936,0.05375614
96.66213594,-0.530841887,-0.028099801,0.117896989
96.71213594,-0.236404851,-0.018325957,0.091018923
96.76213594,-0.015271631,0.023823744,0.056810468
96.81213594,-0.114231803,-0.069027774,-0.057421334
96.86213594,-0.205861583,0.03848451,-0.083077677
96.91213594,0.260228604,0.029932396,-0.142942473
96.96213594,0.158824965,-0.022602014,-0.18875736
97.01213594,0.110566609,-0.003054326,-0.228463605
97.06213594,-0.72509706,-0.006719518,0.133168623
97.11213594,0.742201269,0.183259577,-0.109344877
97.16213594,-0.01282817,0.057421334,-0.00122173
97.21213594,-0.264504641,-0.025656341,-0.078801617
97.26213594,-0.094684117,0.0421497,-0.097127572
97.31213594,0.015271631,0.02321288,0.041538838
97.36213594,-0.025656341,0.022602014,0.08857546
97.41213594,0.029321533,-0.009773844,0.035430186
97.46213594,0.184481308,0.040317107,0.035430186
97.51213594,0.162490159,0.062919118,0.078190751
97.56213594,0.290160984,0.016493361,-0.036651913
97.61213594,-0.568104684,-0.127670839,0.273667634
97.66213594,0.285274059,0.110566609,0.125838235
97.71213594,-0.056810468,-0.174707457,0.131336033
97.76213594,-0.316428185,-0.06169739,0.026267206
97.81213594,-0.129503429,-0.091018923,0.034208454
97.86213594,0.05009095,-0.051312681,-0.032375857
97.91213594,0.025656341,-0.05009095,-0.087964594
97.96213594,0.145996794,-0.039095376,-0.154548913
98.01213594,0.280387133,0.031764992,-0.167987943
98.06213594,0.064751714,-0.007941248,-0.06963864
98.11213594,0.157603234,0.028099801,-0.205861583
98.16213594,-0.514348507,0.144164205,0.048258353
98.21213594,0.332921565,0.003665192,0.048869219
98.26213594,-0.04642576,0.062308256,0.041538838
98.31213594,-0.336586744,-0.007330383,-0.1423316
98.36213594,-0.096516706,0.094684117,-0.120951317
98.41213594,-0.050701816,0.048869219,-0.073303826
98.46213594,-0.065973446,-0.018936822,0.040317107
98.51213594,-0.047647487,-0.122173049,-0.017104227
98.56213594,0.054977871,-0.015882496,0.180205241
98.61213594,0.254730821,0.032986723,0.1160644
98.66213594,-0.069027774,0.058643065,0.08124508
98.71213594,-0.490524799,-0.032375857,-0.044593163
98.76213594,0.282830596,0.018936822,-0.025656341
98.81213594,-0.345138878,-0.101403631,0.025656341
98.86213594,-0.260839462,-0.032375857,0.047036625
98.91213594,0.062919118,-0.051312681,-0.000610865
98.96213594,0.059864793,-0.074525557,0.017104227
99.01213594,-0.020158554,0.037873644,-0.0580322
99.06213594,0.144164205,0.093462385,-0.091629788
99.11213594,0.127670839,0.106290549,-0.072082102
99.16213594,0.203418121,-0.047647487,-0.112399206
99.21213594,-0.296269655,0.039706241,-0.287717521
99.26213594,-0.089186326,0.175318331,0.145996794
99.31213594,0.503963828,-0.080023348,-0.070249505
99.36213594,-0.22357668,-0.005497787,-0.019547688
99.41213594,-0.221133217,0.042760566,-0.202196389
99.46213594,0.05375614,0.128892571,-0.127059966
99.51213594,0.108734012,-0.076358154,-0.015882496
99.56213594,0.097127572,-0.098349303,0.087964594
99.61213594,0.099571034,-0.117286131,0.1160644
99.66213594,0.0421497,-0.08857546,0.174707457
99.71213594,0.263282925,-0.049480084,0.077579886
99.76213594,-0.079412483,-0.051312681,0.047647487
99.81213594,-0.299323976,0.051312681,0.135612086
99.86213594,0.339030206,-0.039095376,0.036041051
99.91213594,-0.328034639,-0.09285152,0.087964594
99.96213594,-0.276721954,-0.061086524,0.125227377
100.0121359,0.109955743,-0.080023348,0.039706241
100.0621359,-0.064140849,-0.015271631,0.026267206
100.1121359,-0.017715093,0.083688542,-0.095294975
100.1621359,0.163711891,0.029932396,-0.249233022
100.2121359,0.16554448,0.195476875,-0.209526777
100.2621359,0.384845108,0.02321288,-0.409279704
100.3121359,0.093462385,0.094073251,-0.323758572
100.3621359,-0.014660766,0.053145275,0.197920337
100.4121359,0.216857165,-0.160657555,0.134390354
100.4621359,-0.583376288,-0.00122173,0.124616511
100.5121359,-0.390342891,0.121562183,-0.207694188
100.5621359,0.041538838,0.128892571,-0.146607652
100.6121359,0.090408057,0.02321288,-0.036651913
100.6621359,-0.030543262,-0.076358154,0.062308256
100.7121359,0.080023348,-0.003665192,0.097127572
100.7621359,-0.00122173,-0.048258353,0.130114302
100.8121359,0.350636661,-0.06536258,0.023823744
100.8621359,0.1423316,0.059864793,0.09285152
100.9121359,-0.009773844,-0.055588737,0.307265222
100.9621359,0.258396,0.024434609,0.164322749
101.0121359,-0.44043383,-0.031154128,0.110566609
101.0621359,-0.445320755,0.059864793,0.134390354
101.1121359,0.022602014,-0.07696902,0.050701816
101.1621359,-0.012217305,-0.06169739,0.034208454
101.2121359,-0.024434609,-0.075136423,-0.097127572
101.2621359,0.092240654,0.029321533,-0.205250725
101.3121359,0.309708685,0.051923547,-0.235793978
101.3621359,0.374460399,0.010995574,-0.397062421
101.4121359,0.172874868,0.064751714,-0.433103472
101.4621359,0.168598801,0.072082102,0.053145275
101.5121359,0.199142069,-0.22357668,0.114231803
101.5621359,-0.450818539,-0.047036625,0.128281698
101.6121359,-0.430660009,0.130114302,-0.001832596
101.6621359,-0.064751714,0.091018923,0.048869219
101.7121359,-0.096516706,0.08857546,0.146607652
101.7621359,-0.032375857,-0.056810468,0.199142069
101.8121359,0.134390354,-0.06536258,0.145996794
101.8621359,0.021380283,-0.002443461,0.180816114
101.9121359,0.436768651,-0.02687807,-0.026267206
101.9621359,-0.268780708,0.0421497,0.116675265
102.0121359,0.032986723,-0.040927973,0.141109869
102.0621359,0.146607652,-0.070860371,-0.000610865
102.1121359,-0.431881726,-0.063529983,0.043371432
102.1621359,-0.267558992,-0.074525557,0.097738437
102.2121359,-0.06963864,-0.094684117,0.047036625
102.2621359,-0.13072516,-0.089797191,-0.01160644
102.3121359,-0.051312681,0.007941248,-0.147829384
102.3621359,0.18875736,0.1001819,-0.238237441
102.4121359,0.334143281,0.06169739,-0.240070045
102.4621359,0.348193198,-0.018936822,-0.264504641
102.5121359,-0.052534413,0.022602014,-0.2003638
102.5621359,-0.19058995,0.13072516,0.317649931
102.6121359,0.331699818,-0.057421334,0.0842994
102.6621359,-0.335975885,0.019547688,0.017104227
102.7121359,-0.438601255,0.047036625,-0.238237441
102.7621359,0.018936822,0.092240654,-0.125227377
102.8121359,0.021380283,-0.094684117,0.044593163
102.8621359,0.124005646,-0.1423316,0.133168623
102.9121359,-0.014049901,-0.056199603,0.103847094
102.9621359,0.328645498,0.039095376,0.191200823
103.0121359,0.196087748,0.023823744,0.040927973
103.0621359,-0.376903862,-0.085521132,0.167377085
103.1121359,0.004276057,0.045814894,0.103236228
103.1621359,0.497855187,-0.069027774,0.067195177
103.2121359,-0.351858378,-0.081855945,0.141720742
103.2621359,-0.393397212,-0.018936822,0.139888138
103.3121359,0.154548913,-0.031764992,0.028099801
103.3621359,0.001832596,-0.040317107,-0.055588737
103.4121359,-0.07696902,-0.015882496,-0.090408057
103.4621359,0.332921565,0.053145275,-0.182648704
103.5121359,0.07696902,0.086742863,-0.085521132
103.5621359,0.36102137,0.152716309,-0.293215305
103.6121359,-0.152716309,0.180816114,-0.232739657
103.6621359,0.533285379,0.007941248,0.048258353
103.7121359,0.44715336,-0.098960169,0.055588737
103.7621359,-0.389732033,0.064140849,0.068416908
103.8121359,-0.476474881,0.15393804,-0.114231803
103.8621359,-0.136222944,0.091629788,-0.019547688
103.9121359,-0.272445887,-0.065973446,0.055588737
103.9621359,-0.342084527,-0.122783914,0.0580322
104.0121359,0.077579886,0.01038471,0.12339478
104.0621359,0.229685336,0.005497787,-0.001832596
104.1121359,0.257785142,0.069027774,-0.06169739
104.1621359,-0.37079519,-0.102625363,0.039706241
104.2121359,0.312763006,0.089797191,0.208305046
104.2621359,0.332921565,-0.089797191,0.003054326
104.3121359,-0.432492584,-0.01160644,0.183870435
104.3621359,-0.218078896,-0.052534413,0.161879286
104.4121359,-0.014660766,-0.072692961,0.10751228
104.4621359,-0.010995574,-0.103847094,-0.023823744
104.5121359,0.034208454,-0.11911872,-0.127670839
104.5621359,0.158214092,-0.001832596,-0.175929189
104.6121359,0.144164205,-0.037262779,-0.175318331
104.6621359,0.193644285,-0.014660766,-0.483194411
104.7121359,-0.342084527,0.156992361,-0.260228604
104.7621359,0.136833817,0.101403631,0.152105451
104.8121359,0.197309479,-0.067195177,0.012217305
104.8621359,-0.553443909,0.010995574,0.028099801
104.9121359,-0.28160888,0.097738437,-0.064140849
104.9621359,-0.05375614,0.11911872,0.023823744
105.0121359,-0.138666406,-0.006108652,0.133779496
105.0621359,-0.070860371,-0.106290549,0.158214092
105.1121359,0.184481308,-0.065973446,0.158824965
105.1621359,0.160046697,-0.008552114,0.120340452
105.2121359,0.172874868,0.029932396,0.042760566
105.2621359,-0.464868456,-0.022602014,0.188146502
105.3121359,-0.029932396,0.094073251,0.207694188
105.3621359,0.166766211,-0.065973446,0.111177474
105.4121359,-0.39400807,-0.125227377,0.195476875
105.4621359,-0.329256356,-0.052534413,0.192422554
105.5121359,-0.005497787,-0.117896989,0.06536258
105.5621359,-0.155159771,-0.036651913,0.001832596
105.6121359,-0.108734012,0.061086524,-0.114842668
105.6621359,0.339641064,0.037873644,-0.272445887
105.7121359,0.175318331,0.280998021,-0.230296195
105.7621359,0.422107875,0.177761793,-0.278554559
105.8121359,0.293215305,0.048869219,-0.497244299
105.8621359,0.302378297,0.141720742,0.09285152
105.9121359,-0.040317107,-0.150883719,0.029321533
105.9621359,-0.425773084,-0.08857546,-0.051923547
106.0121359,-0.368962616,0.019547688,-0.226631001
106.0621359,-0.102014497,0.245567828,-0.08857546
106.1121359,-0.133779496,0.073303826,-0.034208454
106.1621359,0.087964594,0.058643065,0.047036625
106.2121359,0.007941248,0.054367006,0.15393804
106.2621359,0.01160644,0.145385921,0.175929189
106.3121359,0.219911486,-0.051312681,0.064751714
106.3621359,0.013439035,-0.021380283,0.245567828
106.4121359,0.03848451,-0.09285152,0.403781921
106.4621359,0.036651913,-0.045814894,0.136833817
106.5121359,-0.570548117,-0.028710667,0.061086524
106.5621359,-0.379347324,-0.054977871,0.127670839
106.6121359,-0.121562183,-0.122173049,0.129503429
106.6621359,0.035430186,-0.143553332,0.06169739
106.7121359,-0.021991149,-0.05375614,-0.062308256
106.7621359,0.196698606,0.009162978,-0.194866017
106.8121359,0.262061179,0.025045475,-0.191200823
106.8621359,0.365908295,0.120340452,-0.444099039
106.9121359,-0.108123146,-0.089797191,-0.353080124
106.9621359,0.141109869,0.074525557,0.154548913
107.0121359,0.05009095,-0.133168623,0.031154128
107.0621359,-0.372627795,-0.080023348,-0.048258353
107.1121359,-0.299934834,0.072692961,-0.022602014
107.1621359,-0.01160644,0.141720742,-0.003054326
107.2121359,0.033597589,0.11178834,0.039095376
107.2621359,0.091018923,0.012217305,0
107.3121359,0.193033412,-0.136833817,0.043982297
107.3621359,0.22174409,-0.024434609,0.074525557
107.4121359,0.138666406,0.1423316,-0.124616511
107.4621359,-0.207694188,-0.1001819,0.06536258
107.5121359,0.036651913,0.047647487,0.301767439
107.5621359,-0.025656341,-0.029932396,0.084910266
107.6121359,-0.411723167,-0.067806043,0.133168623
107.6621359,-0.278554559,-0.035430186,0.091629788
107.7121359,-0.003054326,-0.075747289,0.159435824
107.7621359,0.015271631,-0.09285152,0.084910266
107.8121359,0.028710667,0.049480084,-0.050701816
107.8621359,0.251065612,0.094073251,-0.173485726
107.9121359,-0.041538838,0.277332813,-0.156381503
107.9621359,0.240680903,0.082466811,-0.527787566
108.0121359,-0.453872889,0.055588737,-0.029321533
108.0621359,0.42394048,-0.098960169,0.054977871
108.1121359,0.072082102,-0.067195177,0.079412483
108.1621359,-0.335365027,-0.06963864,-0.08124508
108.2121359,-0.086742863,0.039095376,-0.057421334
108.2621359,0.040927973,0.017104227,0.022602014
108.3121359,0.147829384,-0.045814894,0.160046697
108.3621359,0.296269655,-0.122783914,0.16554448
108.4121359,0.083077677,-0.079412483,0.2003638
108.4621359,0.327423781,-0.06536258,0.139277279
108.5121359,0.0842994,0.036651913,-0.032375857
108.5621359,-0.44043383,-0.054367006,0.12339478
108.6121359,0.393397212,0.020769419,0.117286131
108.6621359,-0.191200823,-0.066584311,0.028099801
108.7121359,-0.491135657,-0.026267206,0.099571034
108.7621359,-0.075136423,-0.1423316,0.029321533
108.8121359,-0.152105451,-0.102014497,-0.001832596
108.8621359,-0.061086524,-0.045204028,-0.106290549
108.9121359,0.167377085,0.027488936,-0.222965822
108.9621359,0.266337246,0.069027774,-0.351247519
109.0121359,0.420886159,0.120951317,-0.295047909
109.0621359,0.265726388,0.066584311,-0.555276513
109.1121359,-0.233961389,0.181426972,-0.086742863
109.1621359,0.442877293,-0.070249505,0.051923547
109.2121359,-0.114842668,-0.007941248,0.171042264
109.2621359,-0.425162196,0.0421497,0.02687807
109.3121359,-0.082466811,0.13072516,0.026267206
109.3621359,0.030543262,0.124616511,0.105068825
109.4121359,-0.147829384,0.007330383,0.193644285
109.4621359,-0.00122173,0,0.193033412
109.5121359,0.08124508,-0.114842668,0.185703039
109.5621359,0.226020142,-0.06963864,0.147829384
109.6121359,0.230907068,0.01038471,0.003665192
109.6621359,-0.100792766,-0.047647487,0.146607652
109.7121359,0.188146502,0.056810468,0.09285152
109.7621359,-0.025656341,-0.009162978,-0.043982297
109.8121359,-0.41722095,-0.029932396,0.007941248
109.8621359,-0.139888138,-0.080023348,-0.039095376
109.9121359,-0.169820532,-0.085521132,0.023823744
109.9621359,-0.015271631,-0.08124508,-0.083688542
110.0121359,0.031154128,0.003054326,-0.168598801
110.0621359,0.345138878,0.101403631,-0.353690982
110.1121359,0.328645498,0.019547688,-0.232128799
110.1621359,0.46364671,0.004276057,-0.469144523
110.2121359,-0.689666867,0.114842668,-0.031154128
110.2621359,0.444099039,-0.1160644,-0.025656341
110.3121359,0.051312681,0.047647487,0.035430186
110.3621359,-0.326202035,-0.022602014,-0.086131997
110.4121359,-0.150272846,0.142942473,-0.113620937
110.4621359,-0.109955743,0.051312681,-0.000610865
110.5121359,-0.070860371,-0.037873644,0.144164205
110.5621359,-0.147218525,-0.047647487,0.083688542
110.6121359,0.113010071,-0.13072516,0.137444675
110.6621359,0.150272846,-0.078801617,0.114842668
110.7121359,0.114231803,-0.029932396,0.083688542
110.7621359,-0.571769893,-0.072082102,0.191200823
110.8121359,0.398284137,0.014049901,0.164933622
110.8621359,-0.11178834,-0.087964594,0.097738437
110.9121359,-0.368962616,-0.115453534,0.180816114
110.9621359,-0.138666406,-0.130114302,0.131336033
111.0121359,-0.090408057,-0.09285152,0.073914692
111.0621359,-0.13072516,-0.017715093,-0.040317107
111.1121359,0.078190751,0.03481932,-0.150272846
111.1621359,0.326812893,0.072082102,-0.186924771
111.2121359,0.172874868,0.074525557,-0.19853121
111.2621359,0.312763006,0.047036625,-0.434325188
111.3121359,0.031154128,-0.125838235,-0.572380722
111.3621359,0.263893783,-0.045204028,0.083077677
111.4121359,0.029932396,-0.089797191,0.006719518
111.4621359,-0.579711139,0.034208454,0.063529983
111.5121359,-0.270002425,0.13072516,-0.049480084
111.5621359,0.147829384,0.131946892,0.007941248
111.6121359,-0.033597589,0.085521132,0.138666406
111.6621359,0.032986723,-0.026267206,0.134390354
111.7121359,0.115453534,0.000610865,0.196087748
111.7621359,0.095294975,-0.013439035,0.147829384
111.8121359,0.219300628,0.003054326,-0.066584311
111.8621359,-0.293826193,-0.03848451,0.006108652
111.9121359,-0.030543262,0.081855945,0.152105451
111.9621359,0.199142069,-0.071471237,0.039095376
112.0121359,-0.386677712,-0.053145275,0.12339478
112.0621359,-0.401949346,-0.057421334,0.158824965
112.1121359,-0.06169739,-0.099571034,0.136833817
112.1621359,-0.036651913,-0.072692961,0.059253927
112.2121359,0.071471237,0.013439035,-0.03848451
112.2621359,0.34452799,0.073914692,-0.172874868
112.3121359,0.288328409,0.070860371,-0.148440257
112.3621359,0.254730821,-0.018325957,-0.288939267
112.4121359,-0.262061179,0.047647487,-0.277943701
112.4621359,0.089186326,0.067195177,0.114231803
112.5121359,0.220522359,-0.057421334,-0.000610865
112.5621359,-0.326812893,-0.031764992,0.054367006
112.6121359,-0.328645498,0.033597589,-0.121562183
112.6621359,-0.051312681,0.108123146,-0.101403631
112.7121359,-0.0580322,-0.012217305,0.055588737
112.7621359,0.121562183,-0.067806043,0.06536258
112.8121359,0.170431405,-0.047036625,0.176540062
112.8621359,0.159435824,-0.040927973,0.156992361
112.9121359,0.306043476,-0.084910266,0.081855945
112.9621359,-0.142942473,-0.001832596,0.05375614
113.0121359,-0.294437051,-0.01160644,0.069027774
113.0621359,0.241291776,-0.091629788,-0.027488936
113.1121359,-0.322536856,-0.073303826,0.091018923
113.1621359,-0.339641064,-0.09285152,0.096516706
113.2121359,-0.044593163,-0.075136423,0.037873644
113.2621359,-0.071471237,-0.054977871,-0.031154128
113.3121359,-0.06963864,0.015882496,-0.089186326
113.3621359,0.188146502,0.125227377,-0.148440257
113.4121359,0.279776275,0.151494578,-0.149661988
113.4621359,0.430049121,0.061086524,-0.073914692
113.5121359,0.213191971,-0.01160644,-0.373849541
113.5621359,-0.202807263,0.105679691,0.065973446
113.6121359,0.518013716,-0.125838235,-0.007941248
113.6621359,-0.083077677,0.043371432,0.06169739
113.7121359,-0.346360594,0.039095376,-0.03848451
113.7621359,-0.062308256,0.084910266,-0.060475659
113.8121359,0.01282817,0.074525557,0.063529983
113.8621359,-0.083077677,-0.03481932,0.153327182
113.9121359,-0.077579886,0.012217305,0.196087748
113.9621359,0.02687807,-0.030543262,0.180205241
114.0121359,0.11911872,0.003054326,0.152716309
114.0621359,0.175929189,-0.028099801,0.031154128
114.1121359,-0.37079519,0.073914692,-0.004886922
114.1621359,0.365908295,0.023823744,0.035430186
114.2121359,-0.074525557,-0.11178834,0.009162978
114.2621359,-0.34452799,-0.025045475,0.116675265
114.3121359,-0.222965822,-0.054977871,0.025656341
114.3621359,0.013439035,-0.064751714,-0.037873644
114.4121359,-0.103236228,-0.022602014,-0.1160644
114.4621359,-0.092240654,0.064140849,-0.133779496
114.5121359,0.249843881,0.0421497,-0.260228604
114.5621359,0.133168623,0.08124508,-0.175929189
114.6121359,0.399505884,0.005497787,-0.364075691
114.6621359,-0.073914692,0.10445796,-0.300545692
114.7121359,0.11178834,-0.040317107,-0.044593163
114.7621359,0.285884947,-0.103847094,-0.024434609
114.8121359,-0.315206468,-0.085521132,-0.014049901
114.8621359,-0.273056775,0.006108652,-0.078801617
114.9121359,0.145385921,0.023823744,-0.016493361
114.9621359,0.086131997,0.045204028,0.139277279
115.0121359,0.006719518,-0.059253927,0.193033412
115.0621359,-0.058643065,-0.050701816,0.224187538
115.1121359,0.037262779,-0.087964594,0.161268428
115.1621359,0.138055548,0.003054326,0.102625363
115.2121359,0.24495697,0.077579886,0.056810468
115.2621359,-0.23335053,-0.030543262,0.280387133
115.3121359,0.351247519,0.007330383,0.167987943
115.3621359,-0.268780708,-0.01160644,0.076358154
115.4121359,-0.579100251,-0.012217305,0.128281698
115.4621359,-0.086131997,-0.122173049,0.075747289
115.5121359,-0.055588737,-0.142942473,0.033597589
115.5621359,-0.220522359,-0.092240654,-0.083688542
115.6121359,-0.0421497,0.030543262,-0.186313897
115.6621359,0.114231803,0.070249505,-0.293826193
115.7121359,0.158824965,0.078801617,-0.17898351
115.7621359,0.37751472,0.044593163,-0.411112309
115.8121359,-0.160657555,0.111177474,-0.243124366
115.8621359,0.10751228,0.010995574,0.095294975
115.9121359,0.290160984,-0.067195177,0.047647487
115.9621359,-0.356745303,-0.028099801,0.010995574
116.0121359,-0.323147714,0.1423316,-0.047647487
116.0621359,0.065973446,0.136222944,-0.025045475
116.1121359,-0.071471237,0.045814894,0.083077677
116.1621359,-0.135612086,-0.091018923,0.089797191
116.2121359,-0.070249505,-0.058643065,0.155770645
116.2621359,0.083077677,-0.0421497,0.171042264
116.3121359,0.306043476,-0.015271631,0.080634214
116.3621359,0.114842668,0.028710667,0.047036625
116.4121359,-0.388510287,-0.03481932,0.19058995
116.4621359,0.439212114,-0.004276057,0.130114302
116.5121359,-0.242513508,-0.081855945,0.169209674
116.5621359,-0.418442696,-0.127059966,0.171653137
116.6121359,-0.089797191,-0.125838235,0.152105451
116.6621359,-0.028710667,-0.121562183,0.05375614
116.7121359,-0.127670839,-0.01160644,-0.032375857
116.7621359,-0.014049901,0.06963864,-0.144775063
116.8121359,0.120340452,0.124616511,-0.189368233
116.8621359,0.262672067,0.128281698,-0.246178687
116.9121359,0.363464832,0.067806043,-0.338419348
116.9621359,-0.009773844,0.100792766,-0.307265222
117.0121359,0.379958183,-0.054367006,-0.047647487
117.0621359,0.091018923,-0.077579886,-0.003054326
117.1121359,-0.391564608,-0.072082102,-0.049480084
117.1621359,-0.395229816,0.03848451,-0.087964594
117.2121359,-0.01038471,0.08124508,-0.079412483
117.2621359,-0.024434609,0.05009095,0.059864793
117.3121359,0,-0.10445796,0.113620937
117.3621359,0.034208454,0.013439035,0.260228604
117.4121359,0.047036625,0.029321533,0.263282925
117.4621359,0.160046697,-0.044593163,0.208915919
117.5121359,0.232739657,0.059253927,0.150883719
117.5621359,-0.135612086,-0.003054326,0.376903862
117.6121359,0.26816985,-0.02321288,0.156992361
117.6621359,-0.215024561,-0.027488936,0.122783914
117.7121359,-0.405003667,-0.121562183,0.089797191
117.7621359,-0.1001819,-0.144775063,0.103236228
117.8121359,-0.096516706,-0.113620937,0.031764992
117.8621359,-0.208915919,0.02321288,-0.051312681
117.9121359,-0.043371432,0.112399206,-0.224798411
117.9621359,0.072692961,0.173485726,-0.21197024
118.0121359,0.227852732,0.136833817,-0.24678956
118.0621359,0.497855187,0.094073251,-0.354912698
118.1121359,0.13072516,0.128892571,-0.353080124
118.1621359,0.306654364,0.092240654,0.001832596
118.2121359,0.11178834,0.006719518,0.062308256
118.2621359,-0.328034639,-0.005497787,-0.035430186
118.3121359,-0.345138878,0.09285152,0.00122173
118.3621359,-0.069027774,0.074525557,0.014049901
118.4121359,-0.065973446,0.015882496,0.149661988
118.4621359,-0.059864793,-0.072692961,0.097127572
118.5121359,-0.061086524,-0.103236228,0.219911486
118.5621359,-0.004886922,-0.089186326,0.151494578
118.6121359,0.2846632,-0.102625363,0.114842668
118.6621359,-0.161879286,-0.082466811,0.089797191
118.7121359,-0.273056775,0.069027774,-0.039095376
118.7621359,0.141720742,-0.130114302,0.139277279
118.8121359,-0.16554448,-0.119729586,0.172263995
118.8621359,-0.094073251,-0.087964594,0.211359382
118.9121359,0.077579886,-0.077579886,0.125227377
118.9621359,-0.066584311,-0.015882496,0.007941248
119.0121359,-0.175318331,0.074525557,-0.080023348
119.0621359,0.06963864,0.119729586,-0.18875736
119.1121359,0.169209674,0.083077677,-0.289550126
119.1621359,0.245567828,0.152105451,-0.175929189
119.2121359,0.078801617,0.070249505,-0.203418121
119.2621359,-0.49663344,0.1001819,0.098960169
119.3121359,0.386677712,0.040317107,-0.250454754
119.3621359,0.00122173,0.067806043,-0.058643065
119.4121359,-0.089186326,-0.041538838,-0.19058995
119.4621359,-0.208915919,0.047647487,-0.193644285
119.5121359,-0.01160644,-0.102014497,-0.09285152
119.5621359,-0.127059966,-0.040927973,0.007330383
119.6121359,-0.137444675,-0.02687807,-0.003665192
119.6621359,0.061086524,-0.020158554,0.079412483
119.7121359,0.11178834,-0.018936822,0.102625363
119.7621359,0.156992361,-0.157603234,0.188146502
119.8121359,-0.776409745,0.021380283,0.122783914
119.8621359,0.340862811,-0.003054326,0.179594383
119.9121359,-0.097738437,-0.136222944,0.422107875
119.9621359,0.074525557,-0.232128799,0.561385155
120.0121359,0.03481932,-0.160657555,0.567493796
