Time (s),Gyroscope x (rad/s),Gyroscope y (rad/s),Gyroscope z (rad/s)
0.060974208,-0.004886922,-0.035430186,-0.003665192
0.110974208,0.029932396,0.01038471,0.007330383
0.160974208,-0.004276057,0.009773844,-0.018936822
0.210974208,0.020158554,-0.01282817,-0.008552114
0.260974208,-0.007941248,-0.006719518,0.000610865
0.310974208,-0.019547688,-0.035430186,-0.012217305
0.360974208,-0.058643065,-0.028099801,-0.013439035
0.410974208,-0.009773844,-0.039706241,0.009773844
0.460974208,-0.006108652,-0.004276057,0.016493361
0.510974208,-0.00122173,-0.013439035,-0.00122173
0.560974208,-0.022602014,0.058643065,0.009773844
0.610974208,0.006719518,-0.033597589,0.016493361
0.660974208,-0.001832596,0.004886922,-0.000610865
0.710974208,0.006719518,-0.021380283,0.001832596
0.760974208,-0.003054326,0.005497787,0.007330383
0.810974208,0.020158554,0.00122173,0.006108652
0.860974208,0.007330383,0.008552114,-0.008552114
0.910974208,0.014660766,-0.007941248,-0.040317107
0.960974208,0.004886922,-0.014049901,-0.023823744
1.010974208,0.03848451,0.006108652,0
1.060974208,0.036041051,-0.017715093,-0.003665192
1.110974208,0.031154128,0.002443461,0.007330383
1.160974208,0.035430186,-0.016493361,0.021380283
1.210974208,0.02687807,-0.004276057,0.010995574
1.260974208,-0.039706241,-0.00122173,0.014660766
1.310974208,-0.047036625,-0.008552114,0.000610865
1.360974208,-0.028710667,-0.005497787,-0.007330383
1.410974208,-0.014660766,-0.01160644,-0.021380283
1.460974208,-0.007941248,0.039706241,-0.012217305
1.510974208,-0.005497787,0.002443461,0.033597589
1.560974208,-0.009162978,-0.033597589,0.007330383
1.610974208,0.014049901,-0.01038471,0.017104227
1.660974208,0.020158554,-0.023823744,0.007330383
1.710974208,0.035430186,0.017104227,0.01038471
1.760974208,-0.001832596,-0.012217305,0.018325957
1.810974208,-0.007941248,0.008552114,0.006719518
1.860974208,0.034208454,-0.006108652,0.01160644
1.910974208,0.032986723,0.010995574,0.003054326
1.960974208,0.031154128,0.00122173,0.003665192
2.010974208,-0.007330383,-0.021380283,-0.004886922
2.060974208,0.009162978,-0.008552114,0.004276057
2.110974208,-0.007941248,0.01038471,0.00122173
2.160974208,-0.00122173,-0.009162978,0.00122173
2.210974208,0.008552114,0.000610865,0.009162978
2.260974208,0.002443461,0.004276057,0.003054326
2.310974208,0.00122173,-0.009162978,0.006108652
2.360974208,0.014049901,-0.005497787,0
2.410974208,-0.00122173,0.000610865,-0.001832596
2.460974208,0.007941248,-0.002443461,0.000610865
2.510974208,0.003665192,-0.001832596,-0.00122173
2.560974208,0.015271631,0.002443461,-0.002443461
2.610974208,0.006108652,0.017715093,0.005497787
2.660974208,0.018325957,-0.000610865,0.00122173
2.710974208,0.009162978,0.00122173,0.004276057
2.760974208,0.00122173,-0.014049901,0
2.810974208,0.001832596,0.000610865,0.004886922
2.860974208,-0.01038471,-0.002443461,-0.007330383
2.910974208,0.000610865,-0.000610865,0.00122173
2.960974208,-0.006108652,-0.021991149,-0.000610865
3.010974208,0.007941248,0.006719518,0.006108652
3.060974208,-0.007330383,-0.008552114,-0.003665192
3.110974208,-0.020769419,0.003665192,-0.006108652
3.160974208,-0.009773844,-0.004886922,-0.006719518
3.210974208,-0.01038471,-0.01160644,-0.008552114
3.260974208,0.006108652,0.005497787,-0.004886922
3.310974208,0.021991149,-0.002443461,-0.006719518
3.360974208,0.037873644,0.009162978,0.007941248
3.410974208,-0.005497787,-0.009773844,0.003054326
3.460974208,0.003054326,0.000610865,0.00122173
3.510974208,-0.031154128,-0.003665192,-0.001832596
3.560974208,-0.014049901,0.007941248,-0.006719518
3.610974208,-0.018936822,0.018325957,-0.001832596
3.660974208,-0.021380283,-0.014660766,0.006719518
3.710974208,-0.00122173,-0.006719518,0.015882496
3.760974208,-0.004886922,-0.009773844,0.001832596
3.810974208,-0.003665192,-0.001832596,0.003665192
3.860974208,-0.004276057,0.005497787,0.004276057
3.910974208,-0.01038471,0.003054326,0.004276057
3.960974208,-0.003054326,0,0.004276057
4.010974208,-0.008552114,-0.009162978,-0.001832596
4.060974208,0.022602014,0.006719518,0.003665192
4.110974208,0.032986723,0.016493361,0.007330383
4.160974208,0.007330383,-0.006108652,-0.003054326
4.210974208,-0.009162978,-0.00122173,0.004276057
4.260974208,-0.019547688,0.008552114,-0.003665192
4.310974208,-0.009162978,-0.004886922,-0.010995574
4.360974208,-0.006108652,0.003054326,-0.012217305
4.410974208,0.000610865,-0.006719518,-0.005497787
4.460974208,0.003665192,-0.013439035,0.00122173
4.510974208,0.012217305,-0.006719518,0.003665192
4.560974208,0.01038471,0.01160644,-0.003665192
4.610974208,0.014049901,-0.009162978,-0.001832596
4.660974208,-0.014049901,0.020158554,-0.004276057
4.710974208,-0.01282817,0.001832596,-0.001832596
4.760974208,-0.021991149,0.002443461,0.005497787
4.810974208,-0.015882496,0.004276057,0.006108652
4.860974208,0.031764992,-0.015271631,0.004886922
4.910974208,0.026267206,0.025045475,0.007941248
4.960974208,-0.020769419,-0.012217305,-0.001832596
5.010974208,0.009162978,0.003054326,-0.007330383
5.060974208,0.001832596,0.013439035,-0.006108652
5.110974208,0.015882496,-0.013439035,-0.018325957
5.160974208,-0.012217305,0.037873644,-0.01282817
5.210974208,-0.006719518,-0.001832596,-0.013439035
5.260974208,0.004276057,0.003054326,0.008552114
5.310974208,0.0421497,-0.01038471,0.003054326
5.360974208,0.028099801,0.01038471,0.005497787
5.410974208,0.012217305,-0.009162978,-0.005497787
5.460974208,0.007330383,0.017715093,0.002443461
5.510974208,-0.003665192,0.002443461,-0.00122173
5.560974208,-0.020158554,0.013439035,0.015271631
5.610974208,-0.019547688,-0.036651913,0.004276057
5.660974208,0.010995574,0.023823744,0.009773844
5.710974208,0.05375614,-0.024434609,-0.006719518
5.760974208,0.006108652,0.035430186,0.01038471
5.810974208,0.009162978,-0.029321533,-0.002443461
5.860974208,0.003665192,0.016493361,0.012217305
5.910974208,-0.00122173,-0.017715093,-0.003054326
5.960974208,0.006108652,0.018325957,0.001832596
6.010974208,-0.017104227,-0.004886922,-0.007330383
6.060974208,-0.027488936,0.003665192,0.004886922
6.110974208,-0.021991149,0.007330383,0.000610865
6.160974208,0.02321288,-0.018936822,0.006108652
6.210974208,0.010995574,0.007330383,0.004276057
6.260974208,0.015882496,0.003054326,0
6.310974208,0.002443461,-0.001832596,-0.000610865
6.360974208,-0.010995574,0.017104227,0.004886922
6.410974208,-0.025656341,-0.014049901,-0.003054326
6.460974208,-0.019547688,0,-0.000610865
6.510974208,0,0.006108652,-0.003665192
6.560974208,0.007330383,0.008552114,-0.00122173
6.610974208,0.003054326,-0.002443461,-0.000610865
6.660974208,-0.013439035,-0.013439035,-0.001832596
6.710974208,0.00122173,0.009773844,0.003665192
6.760974208,-0.007330383,-0.014049901,-0.008552114
6.810974208,-0.01282817,0.018936822,0.00122173
6.860974208,-0.007941248,-0.015271631,-0.006108652
6.910974208,-0.007941248,-0.000610865,0.002443461
6.960974208,-0.010995574,0.003665192,-0.001832596
7.010974208,0.007330383,0.004276057,-0.000610865
7.060974208,0.006108652,-0.003054326,-0.001832596
7.110974208,-0.002443461,0.024434609,-0.000610865
7.160974208,-0.018325957,-0.015271631,-0.003665192
7.210974208,0.009162978,0.01160644,0.003665192
7.260974208,-0.017104227,-0.018936822,0.000610865
7.310974208,0.004886922,0.013439035,0.006108652
7.360974208,0.015271631,0.003054326,0
7.410974208,0.009162978,-0.004886922,0.006719518
7.460974208,-0.015882496,-0.004276057,-0.004886922
7.510974208,-0.006719518,-0.003054326,-0.00122173
7.560974208,-0.006108652,0.004886922,-0.010995574
7.610974208,-0.005497787,0.001832596,-0.01038471
7.660974208,0,0.007941248,-0.014049901
7.710974208,0.014049901,0.007941248,-0.007330383
7.760974208,0.01282817,-0.004886922,-0.002443461
7.810974208,0.00122173,0.009773844,-0.00122173
7.860974208,0,-0.005497787,-0.003054326
7.910974208,-0.003665192,0.018936822,0.002443461
7.960974208,0.000610865,-0.014660766,-0.000610865
8.010974208,0.007330383,0.012217305,0.007941248
8.060974208,-0.00122173,-0.002443461,0.002443461
8.110974208,-0.015882496,0.01038471,0.006719518
8.160974208,0.013439035,-0.009162978,0.007941248
8.210974208,0.002443461,0.005497787,0.004276057
8.260974208,0.005497787,-0.009162978,0.005497787
8.310974208,-0.01038471,-0.009773844,0.001832596
8.360974208,0.014660766,-0.005497787,0.003054326
8.410974208,0.007941248,-0.007941248,-0.001832596
8.460974208,-0.01160644,0.005497787,-0.006719518
8.510974208,0.007330383,-0.006719518,-0.001832596
8.560974208,-0.010995574,-0.010995574,0
8.610974208,0.018936822,0.005497787,0.006108652
8.660974208,0.007330383,-0.009773844,-0.007941248
8.710974208,0.008552114,0.007941248,0.001832596
8.760974208,-0.010995574,-0.009162978,-0.003054326
8.810974208,0.012217305,0.00122173,0.006719518
8.860974208,-0.002443461,-0.00122173,-0.001832596
8.910974208,0.005497787,-0.003054326,0.003665192
8.960974208,0,0.01038471,-0.001832596
9.010974208,0.037873644,0.00122173,0.007330383
9.060974208,-0.014660766,-0.003665192,0
9.110974208,-0.006719518,-0.008552114,0.007330383
9.160974208,-0.022602014,0.007330383,0.00122173
9.210974208,-0.004886922,-0.000610865,-0.001832596
9.260974208,-0.010995574,0.016493361,-0.002443461
9.310974208,0,-0.006719518,-0.00122173
9.360974208,-0.006719518,-0.005497787,0.002443461
9.410974208,0.00122173,-0.002443461,0.007330383
9.460974208,-0.002443461,0.00122173,-0.004886922
9.510974208,0.014660766,0.001832596,-0.003054326
9.560974208,-0.021380283,0,-0.009162978
9.610974208,0.022602014,0.007330383,-0.004276057
9.660974208,-0.001832596,-0.006108652,-0.006108652
9.710974208,0.006108652,0.015271631,-0.006719518
9.760974208,0.036651913,-0.007330383,-0.004276057
9.810974208,0.029321533,0.034208454,0.002443461
9.860974208,0,-0.015271631,-0.006108652
9.910974208,-0.021991149,0.014049901,-0.006719518
9.960974208,-0.012217305,-0.01282817,-0.004276057
10.01097421,0.016493361,0.012217305,0.00122173
10.06097421,0.017104227,-0.005497787,-0.009162978
10.11097421,0.015882496,0.003665192,-0.000610865
10.16097421,0.032986723,-0.006108652,-0.003054326
10.21097421,0.01038471,0.01160644,0.003665192
10.26097421,0.00122173,0.003054326,-0.006719518
10.31097421,-0.018325957,-0.002443461,0.00122173
10.36097421,-0.021991149,0.01038471,-0.003054326
10.41097421,-0.002443461,-0.007330383,0.003665192
10.46097421,0,0.005497787,0.001832596
10.51097421,0.003054326,-0.003665192,0.003665192
10.56097421,0.018936822,0.002443461,0.000610865
10.61097421,0.014049901,0.009773844,0.004276057
10.66097421,-0.017715093,-0.009773844,0.00122173
10.71097421,-0.009162978,-0.006108652,0.005497787
10.76097421,-0.019547688,-0.01038471,-0.000610865
10.81097421,0.003054326,0.005497787,-0.004886922
10.86097421,0.005497787,0.003054326,-0.003665192
10.91097421,0,-0.004276057,0.003054326
10.96097421,0.007330383,-0.01160644,0.007941248
11.01097421,-0.025656341,0.010995574,-0.00122173
11.06097421,0.008552114,-0.004276057,-0.004886922
11.11097421,0.002443461,0.01038471,-0.006719518
11.16097421,0.003665192,0.015882496,0.000610865
11.21097421,0.006719518,-0.006108652,-0.003665192
11.26097421,-0.002443461,0.022602014,0.004276057
11.31097421,0.001832596,-0.01038471,-0.004276057
11.36097421,0.019547688,0.02321288,0.006719518
11.41097421,-0.003665192,-0.025045475,0.002443461
11.46097421,0.003054326,0.009773844,0.007941248
11.51097421,-0.006719518,-0.023823744,-0.00122173
11.56097421,0.009773844,-0.000610865,0.003665192
11.61097421,0.004886922,-0.001832596,-0.009162978
11.66097421,-0.006719518,-0.002443461,-0.004276057
11.71097421,-0.005497787,-0.004276057,-0.003054326
11.76097421,0.001832596,0.003054326,0.007941248
11.81097421,0.010995574,-0.019547688,-0.004276057
11.86097421,-0.004886922,0.01160644,-0.001832596
11.91097421,0.004276057,-0.006108652,-0.009162978
11.96097421,0.001832596,0.01038471,0.00122173
12.01097421,0.003054326,0.005497787,-0.003665192
12.06097421,0.033597589,0.003054326,0.006108652
12.11097421,0.008552114,-0.006108652,0.006719518
12.16097421,-0.01160644,-0.00122173,0.008552114
12.21097421,-0.010995574,-0.004886922,0.001832596
12.26097421,-0.009162978,0.003054326,0.003054326
12.31097421,-0.01160644,0.012217305,-0.01282817
12.36097421,0.006719518,0.01160644,-0.003665192
12.41097421,0.00122173,-0.015882496,-0.002443461
12.46097421,0.007330383,0.01160644,-0.000610865
12.51097421,0.006719518,0,-0.008552114
12.56097421,0.000610865,0.01038471,-0.003665192
12.61097421,0.010995574,0.015271631,-0.006719518
12.66097421,0.012217305,0,-0.01160644
12.71097421,0,0.032375857,-0.006719518
12.76097421,0.007941248,-0.014660766,-0.00122173
12.81097421,-0.01038471,0.016493361,0.01160644
12.86097421,-0.01282817,-0.018936822,0.009773844
12.91097421,-0.000610865,0.007941248,0.01038471
12.96097421,-0.003054326,-0.016493361,0.006108652
13.01097421,0.002443461,0.001832596,0.001832596
13.06097421,0.002443461,0.002443461,0.00122173
13.11097421,0.003054326,-0.006719518,0.006719518
13.16097421,-0.009773844,-0.002443461,0
13.21097421,0.004276057,0.003665192,-0.004276057
13.26097421,0.002443461,-0.010995574,-0.007941248
13.31097421,0.01160644,-0.004886922,-0.00122173
13.36097421,0.001832596,-0.003054326,0.001832596
13.41097421,-0.000610865,0.000610865,-0.003665192
13.46097421,0.006719518,0.01160644,0.002443461
13.51097421,0.015882496,0.019547688,0.007941248
13.56097421,-0.005497787,-0.01038471,0.009773844
13.61097421,-0.007330383,-0.018936822,0.013439035
13.66097421,0.00122173,0.00122173,0.009773844
13.71097421,0.015271631,-0.014049901,0.001832596
13.76097421,0.090408057,-0.012217305,0.005497787
13.81097421,0.120951317,-0.005497787,0.005497787
13.86097421,0.019547688,0.010995574,0.013439035
13.91097421,-0.089797191,0.020158554,0.007330383
13.96097421,-0.1160644,0.012217305,0.006108652
14.01097421,-0.087964594,0.003054326,0.001832596
14.06097421,-0.070249505,-0.000610865,-0.003054326
14.11097421,0.036041051,-0.006719518,0.004276057
14.16097421,0.082466811,0.000610865,0.004886922
14.21097421,0.113620937,-0.006719518,0.003665192
14.26097421,0.089797191,0.01038471,0.002443461
14.31097421,0.02687807,-0.020158554,-0.000610865
14.36097421,-0.014660766,0.023823744,0.003665192
14.41097421,-0.014660766,-0.026267206,-0.001832596
14.46097421,-0.049480084,0.014660766,-0.001832596
14.51097421,-0.001832596,-0.001832596,-0.009162978
14.56097421,0.003054326,0.010995574,-0.003665192
14.61097421,0.059864793,0.003054326,0.017104227
14.66097421,0.028710667,-0.027488936,0.015271631
14.71097421,0.024434609,-0.021380283,0.007941248
14.76097421,-0.003665192,-0.00122173,0.003665192
14.81097421,-0.025045475,-0.025045475,0.000610865
14.86097421,-0.015882496,-0.006108652,0.006719518
14.91097421,0.023823744,-0.004886922,0.004276057
14.96097421,0.025045475,-0.015882496,-0.00122173
15.01097421,0.039095376,0.022602014,0.002443461
15.06097421,0.009773844,0.001832596,0.006108652
15.11097421,0.006719518,0.021991149,0.003665192
15.16097421,-0.012217305,-0.006108652,-0.000610865
15.21097421,-0.025045475,0.029321533,0.009162978
15.26097421,-0.007330383,0.000610865,0.004886922
15.31097421,-0.014660766,0.018936822,0.008552114
15.36097421,-0.004276057,0,0.004886922
15.41097421,0.017715093,0.004276057,0.013439035
15.46097421,0.032375857,0.003054326,0.006108652
15.51097421,0.010995574,-0.01038471,-0.000610865
15.56097421,-0.017715093,0.016493361,0.001832596
15.61097421,-0.009162978,-0.001832596,-0.003054326
15.66097421,0.002443461,-0.001832596,-0.001832596
15.71097421,-0.043982297,-0.005497787,-0.013439035
15.76097421,-0.108734012,0.040927973,-0.007941248
15.81097421,-0.131946892,0.013439035,-0.013439035
15.86097421,-0.125838235,0.029321533,-0.01038471
15.91097421,-0.025656341,-0.005497787,-0.009162978
15.96097421,0.082466811,-0.017715093,0.004886922
16.01097421,0.10751228,-0.017104227,0.01160644
16.06097421,0.084910266,-0.019547688,0.005497787
16.11097421,-0.017104227,0.006719518,0.005497787
16.16097421,-0.043371432,-0.006719518,-0.01282817
16.21097421,-0.031154128,0.023823744,-0.005497787
16.26097421,-0.014049901,-0.007330383,-0.010995574
16.31097421,0.007941248,0,-0.007330383
16.36097421,0.005497787,-0.003665192,-0.006719518
16.41097421,0.021991149,0.001832596,0
16.46097421,0.009773844,-0.009162978,-0.001832596
16.51097421,-0.013439035,0.005497787,-0.002443461
16.56097421,-0.009162978,-0.009773844,-0.004276057
16.61097421,0.009162978,0.021991149,-0.00122173
16.66097421,-0.009773844,-0.001832596,-0.003054326
16.71097421,-0.000610865,0.007941248,0.012217305
16.76097421,0.01282817,-0.01038471,0.006108652
16.81097421,-0.022602014,-0.006719518,0.001832596
16.86097421,0.007941248,0.000610865,0.000610865
16.91097421,0.025045475,-0.007330383,0
16.96097421,0.003054326,-0.003054326,0
17.01097421,0.028099801,-0.008552114,0.00122173
17.06097421,0.031764992,-0.00122173,0.003054326
17.11097421,0.005497787,-0.016493361,-0.007941248
17.16097421,-0.015882496,0.015271631,-0.000610865
17.21097421,-0.012217305,-0.030543262,-0.01160644
17.26097421,-0.006719518,0.021380283,0.00122173
17.31097421,-0.002443461,-0.014660766,-0.010995574
17.36097421,0.037262779,0.01038471,0.012217305
17.41097421,0.025045475,-0.01038471,-0.000610865
17.46097421,0.012217305,0.009773844,0.008552114
17.51097421,-0.008552114,0.006108652,0.009162978
17.56097421,0.000610865,0.003665192,0.014049901
17.61097421,-0.01038471,-0.01282817,-0.000610865
17.66097421,-0.01282817,0.01160644,0.007330383
17.71097421,-0.006719518,-0.01282817,0.00122173
17.76097421,0.018936822,0.013439035,0.003665192
17.81097421,0.01282817,-0.000610865,-0.000610865
17.86097421,0.001832596,0,-0.00122173
17.91097421,0.000610865,-0.00122173,-0.006719518
17.96097421,0.032375857,-0.005497787,-0.00122173
18.01097421,0.051923547,-0.010995574,-0.007941248
18.06097421,0.025656341,0.008552114,-0.004886922
18.11097421,-0.018936822,-0.009162978,-0.002443461
18.16097421,-0.021380283,0.009773844,-0.005497787
18.21097421,-0.01038471,-0.009773844,-0.006108652
18.26097421,-0.007941248,0.000610865,0.000610865
18.31097421,0.015882496,0.005497787,-0.004276057
18.36097421,0.022602014,0.007330383,-0.000610865
18.41097421,0.01038471,0.006719518,0.005497787
18.46097421,-0.015882496,-0.01160644,-0.000610865
18.51097421,-0.001832596,0.01038471,0.007330383
18.56097421,0.015271631,-0.006108652,0.001832596
18.61097421,0.01038471,-0.004886922,0.003054326
18.66097421,-0.004276057,-0.020769419,-0.00122173
18.71097421,-0.032986723,0.004886922,0.005497787
18.76097421,-0.019547688,-0.010995574,-0.01282817
18.81097421,0.036651913,0.005497787,0.000610865
18.86097421,0.009773844,-0.018325957,-0.007941248
18.91097421,0.031154128,0.015882496,0.006719518
18.96097421,0.030543262,-0.009162978,-0.007941248
19.01097421,0.006108652,0.018325957,-0.004276057
19.06097421,-0.01160644,0.006108652,-0.01038471
19.11097421,0.01038471,0.035430186,-0.000610865
19.16097421,0.029321533,-0.010995574,-0.014660766
19.21097421,0.030543262,0.029932396,0.007330383
19.26097421,0.009162978,-0.00122173,-0.008552114
19.31097421,0.003665192,0.009773844,0.006719518
19.36097421,-0.03481932,-0.009773844,0
19.41097421,-0.036651913,0.023823744,0
19.46097421,0.006719518,-0.013439035,-0.004276057
19.51097421,0.024434609,0.006719518,0.009773844
19.56097421,0.024434609,-0.034208454,-0.001832596
19.61097421,0.007330383,0.031764992,-0.002443461
19.66097421,-0.043371432,-0.008552114,-0.020769419
19.71097421,-0.019547688,0.002443461,-0.001832596
19.76097421,0.02321288,-0.019547688,0.003054326
19.81097421,0.013439035,-0.014049901,0.003054326
19.86097421,0.031764992,-0.003054326,0.002443461
19.91097421,0.025045475,-0.004886922,-0.01038471
19.96097421,0.023823744,0.01038471,-0.012217305
20.01097421,0.025656341,-0.004886922,-0.001832596
20.06097421,-0.027488936,-0.00122173,0.005497787
20.11097421,-0.015882496,0.000610865,-0.002443461
20.16097421,-0.017104227,-0.005497787,0.00122173
20.21097421,-0.013439035,-0.004276057,0.000610865
20.26097421,0.012217305,-0.00122173,0.00122173
20.31097421,0.014660766,-0.001832596,-0.001832596
20.36097421,0.021991149,-0.014660766,0.002443461
20.41097421,0.004886922,0.004886922,0.007330383
20.46097421,-0.014049901,-0.010995574,0.000610865
20.51097421,0.009162978,-0.001832596,0.008552114
20.56097421,0.014049901,-0.01038471,-0.002443461
20.61097421,0.01038471,0,-0.003054326
20.66097421,-0.012217305,-0.01160644,-0.00122173
20.71097421,-0.028710667,0.00122173,-0.006108652
20.76097421,-0.01160644,0.004886922,-0.010995574
20.81097421,0.028710667,0.003665192,-0.004276057
20.86097421,0.017104227,0.000610865,0.000610865
20.91097421,0.001832596,-0.009162978,-0.006108652
20.96097421,0.01282817,0.008552114,-0.01160644
21.01097421,0.016493361,-0.002443461,-0.015882496
21.06097421,-0.00122173,0.015882496,-0.015271631
21.11097421,-0.016493361,-0.002443461,-0.015271631
21.16097421,-0.010995574,-0.01282817,-0.006108652
21.21097421,-0.007330383,0.01282817,-0.002443461
21.26097421,-0.004276057,-0.016493361,-0.001832596
21.31097421,0.010995574,0.010995574,-0.000610865
21.36097421,0.012217305,-0.008552114,-0.004886922
21.41097421,0.009162978,0.01282817,-0.000610865
21.46097421,-0.00122173,-0.003665192,-0.003665192
21.51097421,-0.01160644,0.009162978,-0.004276057
21.56097421,0.01282817,0.004886922,0.003054326
21.61097421,0.006719518,0.014660766,-0.007330383
21.66097421,-0.022602014,-0.005497787,0.005497787
21.71097421,-0.009162978,-0.003054326,0.010995574
21.76097421,0.009773844,-0.016493361,0.008552114
21.81097421,-0.004276057,0.021991149,0.004886922
21.86097421,-0.002443461,-0.023823744,0.00122173
21.91097421,0.003665192,0.01038471,0.00122173
21.96097421,0.003054326,0,-0.00122173
22.01097421,-0.007330383,-0.01160644,-0.002443461
22.06097421,-0.009773844,0.006719518,-0.003665192
22.11097421,0.014660766,-0.006108652,-0.01160644
22.16097421,0.024434609,0.006719518,-0.001832596
22.21097421,-0.014049901,-0.008552114,-0.004886922
22.26097421,0.003054326,0.018936822,-0.004276057
22.31097421,0.008552114,-0.00122173,-0.013439035
22.36097421,0.006108652,0.015271631,-0.003054326
22.41097421,0.008552114,0.017104227,0.000610865
22.46097421,0.025656341,-0.019547688,0.005497787
22.51097421,0.012217305,0.012217305,0.003665192
22.56097421,0.020769419,-0.014660766,-0.004886922
22.61097421,-0.014049901,0.023823744,-0.005497787
22.66097421,0.004886922,-0.017715093,-0.007330383
22.71097421,-0.017715093,0.026267206,0.006108652
22.76097421,0.006719518,-0.026267206,-0.003665192
22.81097421,0.01282817,0.015271631,0.003054326
22.86097421,-0.010995574,-0.019547688,-0.00122173
22.91097421,-0.007330383,0.016493361,0.007330383
22.96097421,-0.005497787,-0.015271631,-0.005497787
23.01097421,-0.01038471,0.009162978,0.004886922
23.06097421,-0.013439035,-0.003665192,-0.010995574
23.11097421,0.01282817,0.002443461,0.005497787
23.16097421,0.01282817,-0.007330383,0.007330383
23.21097421,0.019547688,-0.009162978,0.009773844
23.26097421,-0.007330383,-0.000610865,0.009162978
23.31097421,-0.028710667,-0.003665192,0.006108652
23.36097421,-0.006719518,0.01282817,-0.012217305
23.41097421,-0.009162978,0.004276057,-0.010995574
23.46097421,0.021991149,0.009162978,0.004276057
23.51097421,0.042760566,-0.012217305,0.007330383
23.56097421,0.053145275,-0.013439035,0.012217305
23.61097421,0.044593163,-0.00122173,0.001832596
23.66097421,-0.008552114,0.015271631,-0.006719518
23.71097421,-0.001832596,0.004276057,-0.004276057
23.76097421,-0.015882496,0.025656341,-0.003054326
23.81097421,-0.017104227,-0.007330383,-0.003054326
23.86097421,0.00122173,0.015271631,0.018936822
23.91097421,-0.018325957,-0.020158554,-0.002443461
23.96097421,-0.01160644,0.010995574,-0.004886922
24.01097421,-0.015271631,-0.003665192,-0.006719518
24.06097421,-0.039706241,0.017104227,-0.006108652
24.11097421,-0.071471237,0.009162978,-0.009773844
24.16097421,-0.054367006,0.02321288,0.009773844
24.21097421,-0.056810468,-0.006719518,0.005497787
24.26097421,0.017715093,0.009773844,0.017104227
24.31097421,0.028099801,-0.004886922,0.010995574
24.36097421,0.049480084,-0.002443461,0.01160644
24.41097421,-0.008552114,0.006719518,0.003665192
24.46097421,-0.001832596,0.003054326,0.000610865
24.51097421,-0.016493361,0.005497787,0.000610865
24.56097421,-0.018325957,0.002443461,0.012217305
24.61097421,-0.029932396,-0.015882496,0.003054326
24.66097421,-0.005497787,0,0.003054326
24.71097421,-0.014660766,-0.004886922,-0.001832596
24.76097421,-0.01160644,0.013439035,0.001832596
24.81097421,-0.018936822,0.004276057,0.001832596
24.86097421,0.021991149,-0.007941248,0.01038471
24.91097421,0.015271631,0.006719518,0.010995574
24.96097421,0.022602014,-0.004886922,0.009773844
25.01097421,-0.001832596,0.005497787,0.006719518
25.06097421,-0.004886922,-0.00122173,0.007330383
25.11097421,-0.024434609,0.004886922,0.001832596
25.16097421,-0.002443461,0.010995574,-0.003665192
25.21097421,0.006719518,-0.004886922,-0.003665192
25.26097421,0.019547688,0.01160644,0.001832596
25.31097421,0.022602014,-0.008552114,0.001832596
25.36097421,0.019547688,0.003665192,-0.001832596
25.41097421,0.027488936,-0.014660766,0.004276057
25.46097421,0.017104227,-0.00122173,0.003665192
25.51097421,0.02687807,0.004276057,0.004276057
25.56097421,-0.006719518,-0.018325957,-0.001832596
25.61097421,-0.013439035,0.004886922,0.012217305
25.66097421,-0.021991149,0.006719518,0.01160644
25.71097421,-0.002443461,-0.004276057,0.013439035
25.76097421,-0.021380283,-0.006719518,0.007941248
25.81097421,-0.032375857,-0.003054326,0.009773844
25.86097421,0.035430186,0.006108652,0.02321288
25.91097421,0.013439035,-0.015882496,0.014660766
25.96097421,-0.06536258,0.012217305,0.010995574
26.01097421,-0.055588737,0.01038471,0.01160644
26.06097421,0.051923547,-0.007941248,0.017104227
26.11097421,0.131946892,-0.010995574,0.017715093
26.16097421,0.178372651,-0.036651913,0.018936822
26.21097421,0.182037845,-0.036041051,0.024434609
26.26097421,0.146607652,-0.028710667,0.015271631
26.31097421,0.00122173,-0.004886922,-0.01038471
26.36097421,-0.033597589,0.003054326,-0.016493361
26.41097421,-0.009162978,0.026267206,0
26.46097421,-0.025656341,-0.021380283,-0.00122173
26.51097421,-0.030543262,0.031764992,0.015271631
26.56097421,-0.040317107,-0.017715093,0.01160644
26.61097421,-0.0421497,0.014049901,0.018936822
26.66097421,-0.02321288,0.019547688,0.006108652
26.71097421,-0.007330383,-0.009773844,0.018325957
26.76097421,0.017715093,-0.000610865,0.006108652
26.81097421,-0.002443461,0.013439035,0.01282817
26.86097421,-0.040927973,0.003054326,0.000610865
26.91097421,0,-0.003054326,0.009162978
26.96097421,-0.018936822,-0.007941248,0.005497787
27.01097421,0.002443461,0.00122173,0.003665192
27.06097421,0.003054326,-0.020158554,0.00122173
27.11097421,0.001832596,0.015271631,0.004886922
27.16097421,0.003665192,-0.004886922,-0.003054326
27.21097421,-0.02687807,0.02321288,-0.009162978
27.26097421,-0.013439035,0.009162978,-0.007330383
27.31097421,-0.006719518,0.003665192,-0.003054326
27.36097421,0.009773844,0.003054326,0
27.41097421,0.018936822,-0.000610865,-0.006108652
27.46097421,0.018936822,0.015271631,0.001832596
27.51097421,0.01160644,-0.009773844,0.007330383
27.56097421,-0.020158554,0.016493361,0.008552114
27.61097421,-0.047647487,-0.007330383,0.004276057
27.66097421,-0.034208454,0.009162978,0.004886922
27.71097421,-0.071471237,0.01160644,0
27.76097421,-0.070860371,0.003665192,-0.000610865
27.81097421,0.003054326,-0.006719518,0.004276057
27.86097421,0.05375614,-0.019547688,0.014049901
27.91097421,0.075747289,-0.004886922,0.030543262
27.96097421,0.153327182,-0.042760566,0.026267206
28.01097421,0.270613313,-0.043371432,0.028710667
28.06097421,0.21197024,-0.045814894,0.014660766
28.11097421,-0.040317107,0.031154128,0.024434609
28.16097421,-0.17898351,0.060475659,0.033597589
28.21097421,-0.189979091,0.039706241,0.03481932
28.26097421,-0.148440257,0.014660766,0.033597589
28.31097421,0.022602014,0.005497787,0.048869219
28.36097421,0.0421497,0.000610865,0.029932396
28.41097421,0.032375857,0.014049901,0.032986723
28.46097421,-0.034208454,0.002443461,0.030543262
28.51097421,-0.0421497,0.01038471,0.025045475
28.56097421,-0.024434609,0.006719518,0.015271631
28.61097421,-0.060475659,0.022602014,0.01160644
28.66097421,-0.037873644,0.021380283,0.018325957
28.71097421,-0.016493361,0.013439035,0.027488936
28.76097421,0.022602014,-0.014660766,0.024434609
28.81097421,0.032375857,-0.012217305,0.019547688
28.86097421,0.017715093,-0.032986723,0.026267206
28.91097421,0.015271631,-0.051312681,0.05009095
28.96097421,0.006719518,-0.0421497,0.079412483
29.01097421,0.006108652,-0.047647487,0.122173049
29.06097421,0.03848451,-0.043371432,0.161268428
29.11097421,0.0421497,-0.039706241,0.217468023
29.16097421,0.013439035,-0.041538838,0.248011291
29.21097421,-0.00122173,-0.01038471,0.287106663
29.26097421,-0.010995574,-0.01282817,0.317039073
29.31097421,-0.034208454,0.002443461,0.359188765
29.36097421,-0.052534413,-0.04642576,0.37079519
29.41097421,-0.013439035,-0.003054326,0.412944913
29.46097421,-0.04642576,-0.025656341,0.415999234
29.51097421,-0.083077677,-0.017104227,0.398894996
29.56097421,-0.067806043,0.023823744,0.372016937
29.61097421,-0.02321288,-0.015882496,0.334754169
29.66097421,0.068416908,0.020769419,0.318871647
29.71097421,0.022602014,0.06169739,0.283441484
29.76097421,-0.02687807,0.024434609,0.270613313
29.81097421,0.025656341,0.035430186,0.275500238
29.86097421,0.021380283,0.080634214,0.249843881
29.91097421,0.0842994,0.045814894,0.25167647
29.96097421,0.06536258,0.089797191,0.273667634
30.01097421,0.078190751,0.087353729,0.30115658
30.06097421,0.149051115,0.055588737,0.341473669
30.11097421,0.084910266,0.097127572,0.386677712
30.16097421,-0.037262779,0.039706241,0.42394048
30.21097421,0.008552114,0.02687807,0.441655576
30.26097421,-0.018936822,0.048869219,0.493579119
30.31097421,-0.000610865,-0.031764992,0.552222192
30.36097421,-0.075747289,-0.001832596,0.627358615
30.41097421,-0.0421497,-0.059864793,0.728762209
30.46097421,-0.065973446,-0.09285152,0.812450767
30.51097421,-0.098960169,-0.017104227,0.896750152
30.56097421,-0.025656341,-0.070249505,0.944397688
30.61097421,-0.054367006,-0.060475659,1.035416603
30.66097421,0.029932396,-0.132557765,1.06290555
30.71097421,0.001832596,-0.093462385,1.011592865
30.76097421,-0.067806043,-0.018936822,0.97371918
30.81097421,-0.082466811,0.005497787,0.955393255
30.86097421,0.023823744,-0.014049901,0.922406495
30.91097421,-0.015882496,0.073303826,0.852156997
30.96097421,-0.014049901,0.075136423,0.770911932
31.01097421,-0.034208454,0.162490159,0.723264456
31.06097421,0.050701816,0.072692961,0.673173487
31.11097421,0.117896989,0.145996794,0.640186787
31.16097421,0.07696902,0.10445796,0.584598064
31.21097421,0.02321288,0.080634214,0.574213326
31.26097421,0.06536258,0.095294975,0.571159005
31.31097421,-0.090408057,0.074525557,0.551000476
31.36097421,-0.007941248,0.069027774,0.609643519
31.41097421,-0.01160644,0.052534413,0.668286562
31.46097421,-0.07696902,0.06169739,0.690888584
31.51097421,-0.064140849,0.040317107,0.735481739
31.56097421,-0.006108652,0.06963864,0.805120409
31.61097421,-0.032375857,-0.003665192,0.879645944
31.66097421,-0.054367006,-0.012217305,0.95050633
31.71097421,-0.032375857,-0.028099801,0.994488597
31.76097421,0.01282817,-0.059864793,1.043357849
31.81097421,-0.003665192,-0.016493361,1.080009699
31.86097421,-0.086131997,-0.032375857,1.125213742
31.91097421,-0.102625363,-0.043371432,1.115439892
31.96097421,-0.032986723,-0.007941248,1.042136073
32.01097421,-0.015882496,-0.014049901,0.961501896
32.06097421,-0.009773844,-0.005497787,0.912021816
32.11097421,-0.05375614,0.008552114,0.869261265
32.16097421,-0.040317107,0.029932396,0.849102676
32.21097421,-0.055588737,0.032986723,0.798400879
32.26097421,-0.010995574,0.082466811,0.791070521
32.31097421,0.023823744,0.056810468,0.762359798
32.36097421,0.0842994,0.100792766,0.726318777
32.41097421,0.116675265,0.094073251,0.706771076
32.46097421,0.054977871,0.083077677,0.688445151
32.51097421,-0.040317107,0.067806043,0.635910749
32.56097421,0,0.083688542,0.61269784
32.61097421,0.009773844,0.06536258,0.585819781
32.66097421,0.015271631,0.039095376,0.557719946
32.71097421,0.016493361,0.086742863,0.552833021
32.76097421,0.01038471,0.034208454,0.580932856
32.81097421,-0.070249505,0.03848451,0.613308728
32.86097421,-0.109344877,0.015882496,0.617584765
32.91097421,-0.071471237,0.006719518,0.646906316
32.96097421,-0.050701816,0.030543262,0.705549359
33.01097421,-0.02321288,-0.009162978,0.762970686
33.06097421,0.013439035,-0.027488936,0.819781184
33.11097421,-0.064140849,-0.024434609,0.847270072
33.16097421,-0.09285152,-0.034208454,0.866206944
33.21097421,-0.043982297,-0.053145275,0.883921981
33.26097421,-0.143553332,0.01038471,0.87414819
33.31097421,0.003054326,-0.047036625,0.851546168
33.36097421,0.020769419,-0.061086524,0.806953013
33.41097421,0.000610865,-0.008552114,0.74525559
33.46097421,-0.003054326,0.031764992,0.66889745
33.51097421,-0.094684117,0.032375857,0.60597831
33.56097421,-0.09285152,0.031154128,0.54305923
33.61097421,-0.087964594,0.008552114,0.466701061
33.66097421,-0.098960169,0.002443461,0.385455966
33.71097421,-0.118507855,0.034208454,0.286495805
33.76097421,-0.044593163,0.053145275,0.194866017
33.81097421,-0.03848451,0.091629788,0.108123146
33.86097421,0.033597589,0.039095376,0.060475659
33.91097421,0.076358154,0.059253927,0.024434609
33.96097421,-0.032375857,0.065973446,-0.014049901
34.01097421,-0.019547688,0.015271631,-0.022602014
34.06097421,-0.009162978,0.082466811,-0.032375857
34.11097421,-0.057421334,-0.02687807,-0.020769419
34.16097421,-0.00122173,0.036651913,0.009773844
34.21097421,0.021380283,-0.00122173,0.008552114
34.26097421,0.054977871,-0.03481932,0.029321533
34.31097421,0.037262779,0.004886922,0.03848451
34.36097421,-0.047036625,-0.064751714,0.025656341
34.41097421,0.01160644,-0.003054326,0.036041051
34.46097421,-0.014049901,-0.066584311,0.01038471
34.51097421,-0.021380283,-0.003665192,0.01038471
34.56097421,-0.017104227,-0.021991149,0.00122173
34.61097421,-0.023823744,0,-0.00122173
34.66097421,-0.023823744,-0.003054326,0
34.71097421,0.007330383,0.021380283,0.012217305
34.76097421,-0.018936822,-0.01160644,0.019547688
34.81097421,-0.001832596,0.024434609,0.009773844
34.86097421,-0.020769419,0.000610865,0.003665192
34.91097421,-0.01160644,0.010995574,0.007941248
34.96097421,-0.004886922,-0.004276057,0.002443461
35.01097421,-0.037873644,-0.005497787,0.003665192
35.06097421,-0.033597589,0.004276057,-0.001832596
35.11097421,0.000610865,-0.005497787,0.002443461
35.16097421,0.006719518,0.007941248,0.004276057
35.21097421,0.004886922,-0.013439035,0.007330383
35.26097421,0.022602014,0.006719518,0.015882496
35.31097421,0.001832596,-0.01282817,0.004276057
35.36097421,0.002443461,0.019547688,-0.004276057
35.41097421,-0.003054326,0.012217305,0.004276057
35.46097421,-0.020769419,-0.005497787,-0.001832596
35.51097421,-0.003665192,0.01160644,-0.006108652
35.56097421,0.007941248,-0.002443461,-0.003665192
35.61097421,0.007330383,-0.006719518,-0.00122173
35.66097421,-0.004276057,0.003665192,-0.01160644
35.71097421,0.006108652,0.00122173,-0.016493361
35.76097421,0.01038471,0.005497787,-0.013439035
35.81097421,0.01038471,0.007330383,-0.012217305
35.86097421,0.019547688,0.01038471,-0.01282817
35.91097421,0.015882496,-0.005497787,-0.008552114
35.96097421,0.01038471,-0.006719518,-0.009773844
36.01097421,0.004276057,0.001832596,-0.020769419
36.06097421,0.010995574,0.000610865,-0.020769419
36.11097421,0.013439035,0.010995574,-0.015271631
36.16097421,0.010995574,-0.003054326,-0.010995574
36.21097421,0.006108652,-0.010995574,-0.000610865
36.26097421,-0.017104227,-0.013439035,-0.003665192
36.31097421,-0.00122173,-0.001832596,-0.004886922
36.36097421,0.000610865,-0.01038471,-0.01282817
36.41097421,0.002443461,0.007941248,-0.014049901
36.46097421,-0.008552114,0.007941248,-0.015271631
36.51097421,-0.021380283,0.005497787,-0.000610865
36.56097421,0.003054326,0.007330383,0.001832596
36.61097421,-0.007941248,-0.012217305,0.00122173
36.66097421,-0.006108652,0.010995574,0.006719518
36.71097421,0.02687807,-0.006108652,0.003665192
36.76097421,0.01038471,0.01160644,-0.001832596
36.81097421,0.001832596,-0.002443461,-0.00122173
36.86097421,0.001832596,0.007941248,-0.004276057
36.91097421,-0.022602014,0.017104227,-0.006108652
36.96097421,-0.028710667,-0.021991149,0.003665192
37.01097421,-0.007941248,0.005497787,0.006108652
37.06097421,0.017715093,-0.019547688,-0.003665192
37.11097421,0.027488936,0.017715093,0.009162978
37.16097421,0.01038471,0.003665192,0.000610865
37.21097421,-0.029321533,0.003665192,-0.003054326
37.26097421,-0.049480084,0.01282817,0.004276057
37.31097421,-0.022602014,-0.008552114,0.001832596
37.36097421,0.004276057,0.017104227,-0.002443461
37.41097421,0.004886922,-0.009162978,0.009162978
37.46097421,0.021991149,0.012217305,0.012217305
37.51097421,-0.01038471,-0.027488936,0.000610865
37.56097421,0.026267206,0.033597589,0.01160644
37.61097421,-0.007330383,-0.020158554,0.001832596
37.66097421,0.018325957,0.01282817,0.005497787
37.71097421,-0.015882496,-0.007941248,0.000610865
37.76097421,0.01038471,0.014049901,0.001832596
37.81097421,-0.012217305,0,-0.004276057
37.86097421,-0.013439035,0.006719518,-0.001832596
37.91097421,-0.021991149,0.016493361,-0.005497787
37.96097421,0.001832596,-0.004886922,-0.002443461
38.01097421,0.018936822,0.006719518,0.003054326
38.06097421,0.013439035,-0.00122173,0
38.11097421,0.02321288,0.010995574,-0.001832596
38.16097421,-0.014660766,0.009162978,-0.001832596
38.21097421,0.009162978,-0.010995574,-0.00122173
38.26097421,0.003665192,0.017104227,-0.002443461
38.31097421,0,-0.014049901,-0.002443461
38.36097421,0.00122173,0.018936822,0.007330383
38.41097421,-0.00122173,-0.01038471,0.005497787
38.46097421,-0.009162978,-0.006719518,0.017104227
38.51097421,-0.014049901,-0.005497787,0.007941248
38.56097421,-0.01038471,0.003665192,0.008552114
38.61097421,0.006108652,0.01038471,0.012217305
38.66097421,0.007330383,-0.015271631,0.009162978
38.71097421,-0.004276057,0.020158554,0.020158554
38.76097421,-0.016493361,-0.015271631,0.009773844
38.81097421,-0.00122173,0.017715093,0.012217305
38.86097421,0.002443461,-0.004886922,0.003665192
38.91097421,0.01160644,-0.019547688,0.000610865
38.96097421,0.010995574,0.01282817,-0.006719518
39.01097421,-0.010995574,-0.003665192,-0.014660766
39.06097421,0.025656341,-0.010995574,-0.00122173
39.11097421,0,-0.003665192,0.006108652
39.16097421,-0.018936822,-0.007941248,-0.003054326
39.21097421,-0.02321288,0.009773844,0.004276057
39.26097421,-0.016493361,0.006108652,0.001832596
39.31097421,-0.020158554,0.018936822,0.004886922
39.36097421,0.002443461,0.005497787,0.003665192
39.41097421,-0.004276057,0.012217305,0.007941248
39.46097421,0.006719518,0.004886922,0.007941248
39.51097421,-0.001832596,0.004886922,0.009773844
39.56097421,-0.007330383,0.001832596,0.01160644
39.61097421,-0.001832596,-0.000610865,0.008552114
39.66097421,0.01038471,0.020769419,-0.004276057
39.71097421,0.023823744,-0.018936822,-0.002443461
39.76097421,-0.000610865,0.024434609,0.000610865
39.81097421,-0.009162978,-0.020158554,0.005497787
39.86097421,0.004886922,-0.000610865,0.001832596
39.91097421,-0.006719518,-0.00122173,-0.004886922
39.96097421,0.028099801,0.012217305,-0.002443461
40.01097421,0.00122173,-0.006108652,-0.006108652
40.06097421,0.005497787,0.003054326,0.004276057
40.11097421,-0.004886922,0.007330383,0
40.16097421,-0.005497787,0.00122173,0.00122173
40.21097421,0.007941248,0.003054326,-0.009162978
40.26097421,0.013439035,0.014049901,-0.000610865
40.31097421,0.004276057,-0.009773844,-0.006108652
40.36097421,0.010995574,0.020769419,-0.004276057
40.41097421,0.006108652,-0.003665192,-0.003665192
40.46097421,0.004886922,0.025656341,0.003665192
40.51097421,-0.005497787,-0.003054326,0.006108652
40.56097421,-0.015271631,-0.006108652,-0.000610865
40.61097421,-0.014049901,0.008552114,-0.003665192
40.66097421,0.003665192,0.004276057,-0.00122173
40.71097421,-0.000610865,-0.003665192,-0.00122173
40.76097421,0.009773844,-0.004886922,0.01038471
40.81097421,0.005497787,0.00122173,0
40.86097421,0.00122173,-0.006108652,-0.000610865
40.91097421,0.007941248,0,-0.004276057
40.96097421,-0.003054326,-0.007941248,-0.002443461
41.01097421,-0.005497787,-0.00122173,-0.003665192
41.06097421,0.017104227,0.01038471,-0.006719518
41.11097421,0.02687807,0.00122173,0.00122173
41.16097421,0.014660766,-0.007941248,0.006108652
41.21097421,-0.008552114,-0.00122173,-0.004276057
41.26097421,0.000610865,0.004276057,-0.002443461
41.31097421,-0.01038471,0.007941248,-0.007941248
41.36097421,-0.002443461,-0.002443461,-0.007330383
41.41097421,0,0.008552114,0
41.46097421,-0.01282817,-0.020769419,-0.004886922
41.51097421,-0.008552114,0.006719518,-0.000610865
41.56097421,-0.009773844,-0.006108652,-0.007330383
41.61097421,-0.003054326,-0.009773844,-0.002443461
41.66097421,0.002443461,0.004276057,-0.01038471
41.71097421,0.018936822,-0.007330383,-0.009773844
41.76097421,0.006108652,0.02321288,-0.000610865
41.81097421,-0.009162978,-0.019547688,-0.000610865
41.86097421,-0.003665192,0.010995574,0.007330383
41.91097421,0.00122173,-0.01160644,0
41.96097421,0.006108652,0.006719518,0.004276057
42.01097421,0.000610865,-0.003054326,0.000610865
42.06097421,-0.014049901,0.001832596,0.007941248
42.11097421,0.015271631,0.000610865,0.007941248
42.16097421,0.001832596,-0.002443461,0.007330383
42.21097421,0.006108652,-0.004886922,0.013439035
42.26097421,0.012217305,-0.005497787,0.017715093
42.31097421,0.013439035,-0.001832596,0.004276057
42.36097421,0.010995574,0.005497787,-0.000610865
42.41097421,-0.001832596,0.002443461,0.004886922
42.46097421,-0.028710667,0.00122173,0.006719518
42.51097421,-0.018325957,-0.014049901,-0.000610865
42.56097421,-0.012217305,0.017715093,0.006108652
42.61097421,0.004276057,-0.016493361,0
42.66097421,0.021380283,0.020158554,0.002443461
42.71097421,-0.033597589,0.01038471,-0.004276057
42.76097421,0.024434609,-0.022602014,0.009773844
42.81097421,0.007941248,0.007330383,0.007941248
42.86097421,0.003054326,0,-0.004276057
42.91097421,0.015882496,-0.001832596,-0.000610865
42.96097421,0.004276057,-0.010995574,-0.001832596
43.01097421,0.00122173,-0.006108652,-0.004886922
43.06097421,-0.004276057,0.006108652,-0.003665192
43.11097421,0.01282817,-0.004886922,0.006108652
43.16097421,-0.015271631,-0.001832596,0.006108652
43.21097421,-0.020769419,-0.009162978,-0.001832596
43.26097421,-0.000610865,-0.003054326,-0.004276057
43.31097421,-0.00122173,-0.01282817,-0.005497787
43.36097421,0.00122173,0.000610865,-0.006108652
43.41097421,-0.013439035,-0.004276057,-0.007330383
43.46097421,-0.002443461,-0.010995574,-0.004276057
43.51097421,-0.006108652,0.002443461,-0.006108652
43.56097421,-0.008552114,-0.004886922,-0.013439035
43.61097421,0.002443461,0.006108652,-0.01038471
43.66097421,0.013439035,0.00122173,-0.015882496
43.71097421,0.000610865,0.007941248,-0.007330383
43.76097421,0.01038471,0.004276057,-0.001832596
43.81097421,0.013439035,0.003054326,-0.005497787
43.86097421,-0.007330383,0.020158554,0.004276057
43.91097421,-0.000610865,0,0.003665192
43.96097421,0.005497787,-0.000610865,0.007330383
44.01097421,-0.003665192,-0.003054326,0.00122173
44.06097421,0.013439035,-0.004276057,-0.003054326
44.11097421,0.022602014,-0.001832596,0
44.16097421,0.01038471,-0.015882496,-0.012217305
44.21097421,-0.003054326,0.004276057,-0.009162978
44.26097421,0.001832596,-0.018325957,-0.009162978
44.31097421,-0.014660766,0.017715093,-0.003665192
44.36097421,-0.001832596,-0.000610865,-0.004886922
44.41097421,-0.019547688,0.010995574,0
44.46097421,-0.006719518,0.013439035,-0.003665192
44.51097421,-0.016493361,0.008552114,0.002443461
44.56097421,-0.000610865,0.014049901,-0.003054326
44.61097421,-0.003665192,0.007941248,0.00122173
44.66097421,-0.010995574,0.00122173,0.007330383
44.71097421,-0.043982297,0.007941248,0.01038471
44.76097421,-0.00122173,-0.01160644,0.007941248
44.81097421,0.009162978,0.012217305,0.012217305
44.86097421,0.005497787,-0.01038471,0.000610865
44.91097421,0.02321288,0.013439035,0.01282817
44.96097421,0.01038471,-0.003665192,-0.000610865
45.01097421,-0.012217305,0.01038471,0.004886922
45.06097421,-0.029932396,-0.018936822,-0.00122173
45.11097421,-0.004886922,0.014660766,0.001832596
45.16097421,-0.000610865,-0.017715093,-0.004276057
45.21097421,0.015271631,0.008552114,0.001832596
45.26097421,0.020158554,-0.001832596,-0.00122173
45.31097421,0.01160644,0.001832596,-0.00122173
45.36097421,0.01160644,-0.000610865,-0.007330383
45.41097421,0.006719518,-0.002443461,-0.008552114
45.46097421,0.014049901,0.01038471,-0.003665192
45.51097421,0.010995574,0.018325957,-0.007330383
45.56097421,-0.004886922,-0.009162978,-0.001832596
45.61097421,-0.016493361,0.007941248,0.006719518
45.66097421,0.00122173,-0.017715093,0.00122173
45.71097421,-0.007330383,0.004276057,-0.000610865
45.76097421,0.005497787,0.00122173,0.004276057
45.81097421,-0.017715093,-0.020158554,0.004276057
45.86097421,-0.029321533,0.01038471,0.006108652
45.91097421,-0.025656341,-0.012217305,0.002443461
45.96097421,0.018325957,0.009162978,0.003665192
46.01097421,0.047036625,-0.024434609,-0.001832596
46.06097421,0.071471237,0.000610865,-0.003665192
46.11097421,0.017715093,-0.014049901,-0.000610865
46.16097421,-0.052534413,0.020158554,0.007330383
46.21097421,-0.070860371,0.007941248,-0.004276057
46.26097421,-0.034208454,0.004886922,-0.003054326
46.31097421,-0.007941248,0.031764992,0.00122173
46.36097421,0.054977871,-0.009162978,0.009162978
46.41097421,0.058643065,0.015271631,0.01038471
46.46097421,0.049480084,-0.01160644,0.005497787
46.51097421,0.035430186,0.004886922,-0.001832596
46.56097421,0.009162978,0.007330383,-0.006719518
46.61097421,-0.037873644,0.017715093,-0.005497787
46.66097421,-0.003665192,-0.000610865,0.001832596
46.71097421,-0.009773844,0.006719518,0.008552114
46.76097421,0.025045475,-0.012217305,0.006108652
46.81097421,0.020769419,0.01160644,0.010995574
46.86097421,-0.00122173,-0.007941248,0.007941248
46.91097421,0.006108652,0.01282817,0.007941248
46.96097421,-0.002443461,-0.004886922,0.006719518
47.01097421,-0.016493361,-0.003054326,0.007941248
47.06097421,-0.017104227,0.015271631,0.007330383
47.11097421,0.015271631,-0.013439035,0.01038471
47.16097421,-0.002443461,0.010995574,0.009162978
47.21097421,0.01160644,-0.008552114,0.005497787
47.26097421,0.004276057,-0.00122173,-0.000610865
47.31097421,0.01160644,0.001832596,-0.00122173
47.36097421,-0.000610865,-0.003665192,-0.006108652
47.41097421,-0.012217305,0.020158554,-0.007941248
47.46097421,-0.032375857,0.001832596,-0.01160644
47.51097421,0.002443461,0.001832596,-0.003665192
47.56097421,0.007941248,0.005497787,-0.003665192
47.61097421,0.015271631,-0.009162978,-0.004276057
47.66097421,0.004886922,0.009773844,0.000610865
47.71097421,-0.018325957,-0.01038471,-0.004276057
47.76097421,0.015271631,0.018936822,0.006108652
47.81097421,-0.01282817,-0.029321533,0
47.86097421,0.004276057,0.023823744,0.012217305
47.91097421,0.006719518,-0.022602014,-0.003054326
47.96097421,0.017715093,0.025045475,0.003665192
48.01097421,0.026267206,-0.013439035,0.00122173
48.06097421,-0.017104227,0.021380283,0.006719518
48.11097421,-0.108123146,-0.004886922,-0.006719518
48.16097421,-0.10751228,0.019547688,0.00122173
48.21097421,-0.12339478,0.023823744,-0.01160644
48.26097421,-0.025045475,-0.010995574,-0.006719518
48.31097421,0.040317107,0.002443461,-0.004886922
48.36097421,0.055588737,-0.01160644,-0.013439035
48.41097421,0.036041051,0.017715093,-0.005497787
48.46097421,0.004886922,-0.020158554,-0.007330383
48.51097421,-0.029932396,0.003054326,-0.003665192
48.56097421,-0.010995574,-0.015271631,-0.001832596
48.61097421,-0.003054326,-0.00122173,-0.004276057
48.66097421,0.024434609,-0.014660766,-0.004886922
48.71097421,0.028710667,0.01282817,0.003054326
48.76097421,0.022602014,-0.01038471,-0.004276057
48.81097421,0.012217305,0.005497787,0.01038471
48.86097421,0.015271631,0.018325957,0.01038471
48.91097421,-0.003054326,-0.01038471,0.014660766
48.96097421,0.01160644,0.000610865,0.015882496
49.01097421,0.009773844,-0.007330383,0.01160644
49.06097421,0,0.006108652,-0.00122173
49.11097421,0.013439035,0.003054326,0.00122173
49.16097421,-0.006719518,0.001832596,-0.01160644
49.21097421,-0.005497787,0.002443461,-0.004886922
49.26097421,-0.001832596,-0.013439035,-0.000610865
49.31097421,-0.010995574,0.008552114,0.007330383
49.36097421,-0.004886922,-0.01282817,-0.000610865
49.41097421,-0.006108652,0.003054326,0.004886922
49.46097421,0.009773844,0.005497787,-0.003665192
49.51097421,-0.015882496,0.010995574,0.003054326
49.56097421,0.009773844,0.004886922,0.009773844
49.61097421,-0.00122173,0.003665192,0.004886922
49.66097421,0.015882496,0.01160644,0.004276057
49.71097421,0.022602014,0.002443461,0.007330383
49.76097421,-0.003665192,0.003665192,0.006108652
49.81097421,-0.006719518,0.004886922,0.003665192
49.86097421,0.007941248,-0.01282817,0.00122173
49.91097421,0.007330383,0.01038471,0.000610865
49.96097421,0.004886922,-0.017715093,0.001832596
50.01097421,-0.018936822,0.015882496,0.003665192
50.06097421,-0.003054326,-0.021991149,0.00122173
50.11097421,-0.017104227,0.03481932,-0.004886922
50.16097421,-0.021991149,-0.015882496,0.000610865
50.21097421,0.015271631,-0.009773844,0.006108652
50.26097421,-0.004886922,0.003665192,-0.004276057
50.31097421,0.006108652,-0.000610865,0.005497787
50.36097421,0.031154128,-0.002443461,0.006719518
50.41097421,0.045814894,-0.007330383,0.007941248
50.46097421,0.007941248,0.007941248,-0.001832596
50.51097421,0,-0.003665192,0.003054326
50.56097421,-0.006108652,0.02687807,-0.002443461
50.61097421,-0.037262779,-0.015271631,-0.004276057
50.66097421,-0.001832596,0.012217305,0.003665192
50.71097421,-0.000610865,-0.013439035,-0.005497787
50.76097421,0.017104227,0.012217305,-0.004276057
50.81097421,0.017715093,0.00122173,-0.004886922
50.86097421,0.01038471,0.005497787,-0.007330383
50.91097421,-0.009162978,-0.000610865,-0.006719518
50.96097421,-0.008552114,0.003665192,-0.000610865
51.01097421,-0.00122173,-0.003054326,0.004276057
51.06097421,0.023823744,-0.007941248,0.005497787
51.11097421,0.013439035,0.00122173,0.00122173
51.16097421,0.009773844,-0.006108652,0.003054326
51.21097421,-0.000610865,0.015271631,0.009162978
51.26097421,-0.004276057,-0.01282817,0.009162978
51.31097421,0.006108652,0.01160644,0.006108652
51.36097421,0.021991149,0.015271631,0.00122173
51.41097421,0.012217305,-0.009773844,0.008552114
51.46097421,-0.01160644,-0.001832596,0.007330383
51.51097421,-0.02321288,0.004276057,0.001832596
51.56097421,0,-0.01038471,0.00122173
51.61097421,0.018936822,0.006719518,-0.003665192
51.66097421,0.013439035,-0.003665192,-0.009162978
51.71097421,0.003665192,0.010995574,-0.004276057
51.76097421,-0.015882496,-0.001832596,0.000610865
51.81097421,-0.025656341,-0.000610865,-0.007330383
51.86097421,-0.029932396,0.021380283,-0.004276057
51.91097421,0.009773844,-0.009162978,-0.007330383
51.96097421,0.010995574,0.014660766,-0.003054326
52.01097421,0.009773844,-0.010995574,0
52.06097421,0.026267206,0.01038471,0.009162978
52.11097421,0.023823744,-0.015271631,0.006108652
52.16097421,0.020769419,0.017104227,0.007330383
52.21097421,-0.010995574,-0.01038471,0.006108652
52.26097421,-0.02321288,0.004886922,0.005497787
52.31097421,-0.015271631,0.002443461,0.000610865
52.36097421,-0.015271631,-0.007330383,0.004276057
52.41097421,0.007941248,0.014660766,0.004886922
52.46097421,0.020769419,-0.021380283,0
52.51097421,-0.028710667,0.018936822,0.005497787
52.56097421,-0.00122173,-0.007330383,0.000610865
52.61097421,-0.001832596,0.003665192,0.001832596
52.66097421,-0.006719518,-0.007941248,-0.002443461
52.71097421,0.029321533,-0.000610865,-0.000610865
52.76097421,-0.019547688,-0.002443461,-0.007330383
52.81097421,-0.004886922,0.004276057,-0.012217305
52.86097421,-0.001832596,0.000610865,-0.01160644
52.91097421,0.004276057,0.013439035,-0.005497787
52.96097421,0.006719518,-0.003665192,-0.00122173
53.01097421,0.00122173,0.016493361,0.002443461
53.06097421,0.029321533,-0.014049901,0.00122173
53.11097421,0.018936822,0.025045475,0.006719518
53.16097421,-0.013439035,-0.015271631,0.003054326
53.21097421,-0.020158554,0.025656341,0.001832596
53.26097421,-0.007941248,-0.027488936,-0.006108652
53.31097421,-0.009773844,0.021380283,0.003665192
53.36097421,0.013439035,-0.014049901,0.000610865
53.41097421,0.012217305,-0.004886922,0.005497787
53.46097421,0.007941248,-0.01282817,0.00122173
53.51097421,0.005497787,0.003054326,0.005497787
53.56097421,-0.008552114,-0.004276057,-0.009162978
53.61097421,-0.018936822,0.01038471,-0.002443461
53.66097421,-0.004886922,0.018936822,0.002443461
53.71097421,-0.009773844,-0.002443461,-0.001832596
53.76097421,-0.014660766,0.009773844,0.00122173
53.81097421,0.003665192,0.003665192,0.009773844
53.86097421,0.021380283,-0.007330383,0.004276057
53.91097421,-0.003054326,0.01160644,0.004276057
53.96097421,0.010995574,-0.009773844,0
54.01097421,0.006108652,0.006108652,0.003054326
54.06097421,0.004276057,-0.009773844,-0.002443461
54.11097421,0.002443461,0.01038471,0.003665192
54.16097421,0.01038471,-0.002443461,-0.006108652
54.21097421,-0.023823744,-0.001832596,-0.00122173
54.26097421,-0.007941248,0.01282817,-0.00122173
54.31097421,0.009162978,-0.00122173,0
54.36097421,-0.01038471,0.014049901,-0.003665192
54.41097421,0.006108652,-0.004886922,0.00122173
54.46097421,0.022602014,0.022602014,0.005497787
54.51097421,-0.021380283,-0.015882496,-0.001832596
54.56097421,-0.015271631,0.010995574,0.00122173
54.61097421,-0.013439035,-0.002443461,-0.003054326
54.66097421,0.006719518,0.007330383,-0.000610865
54.71097421,0.020158554,-0.013439035,0.003054326
54.76097421,0.003054326,0.004886922,0.004276057
54.81097421,0.003054326,-0.009162978,0.000610865
54.86097421,0.004276057,0.015271631,0.01038471
54.91097421,-0.01038471,-0.004886922,0.000610865
54.96097421,0.007330383,0.005497787,0.003054326
55.01097421,-0.003054326,-0.004276057,-0.00122173
55.06097421,-0.018936822,0.004276057,0.003054326
55.11097421,-0.012217305,0.00122173,0.003665192
55.16097421,-0.013439035,0.007330383,-0.004276057
55.21097421,0.007330383,-0.004276057,-0.000610865
55.26097421,-0.009773844,0.01160644,0.000610865
55.31097421,-0.023823744,-0.009773844,-0.003665192
55.36097421,-0.027488936,0.006108652,-0.004276057
55.41097421,-0.002443461,0,-0.002443461
55.46097421,0.028099801,0.010995574,-0.00122173
55.51097421,0.023823744,0.002443461,-0.004276057
55.56097421,0.01038471,0.009162978,0.01282817
55.61097421,-0.020769419,0.004886922,0.003054326
55.66097421,-0.014049901,0.007941248,0.003054326
55.71097421,0.000610865,0.006719518,-0.002443461
55.76097421,-0.019547688,0.002443461,-0.004886922
55.81097421,0.010995574,0.00122173,-0.00122173
55.86097421,0.01282817,0.00122173,0.00122173
55.91097421,0.001832596,-0.006719518,-0.006719518
55.96097421,0.003054326,0.004886922,-0.002443461
56.01097421,0.010995574,0.006719518,-0.004276057
56.06097421,0.002443461,-0.004276057,0.001832596
56.11097421,-0.020769419,-0.003054326,0.004276057
56.16097421,-0.015271631,-0.004276057,0.006719518
56.21097421,-0.014049901,0.006108652,-0.000610865
56.26097421,0.009773844,0,0.008552114
56.31097421,-0.003054326,0.007941248,0.003665192
56.36097421,0.003665192,-0.007941248,0.008552114
56.41097421,-0.001832596,-0.000610865,0.009162978
56.46097421,-0.012217305,-0.003054326,0.003054326
56.51097421,-0.01038471,-0.000610865,0.000610865
56.56097421,0.01038471,0,0.00122173
56.61097421,0.013439035,-0.00122173,0.002443461
56.66097421,-0.008552114,0.004276057,0.001832596
56.71097421,-0.028099801,-0.004276057,0.002443461
56.76097421,-0.075136423,0.008552114,-0.007941248
56.81097421,-0.021991149,0.004276057,-0.01160644
56.86097421,-0.03848451,0.01282817,-0.009162978
56.91097421,0.009773844,0.001832596,-0.00122173
56.96097421,-0.006719518,-0.000610865,0.004276057
57.01097421,0.026267206,-0.01038471,0.005497787
57.06097421,0.030543262,0.00122173,-0.000610865
57.11097421,0.003054326,0.016493361,-0.007941248
57.16097421,-0.025045475,-0.004886922,-0.010995574
57.21097421,-0.017715093,0.006719518,0.006108652
57.26097421,-0.002443461,-0.010995574,0.005497787
57.31097421,0.000610865,-0.000610865,-0.000610865
57.36097421,0.004886922,0.00122173,0
57.41097421,-0.02321288,-0.006719518,0.004276057
57.46097421,-0.005497787,0.01038471,0
57.51097421,0.014660766,-0.007330383,0.002443461
57.56097421,0.006108652,0.012217305,0.007330383
57.61097421,0.004276057,-0.003054326,0.002443461
57.66097421,0.025045475,0.014660766,0.00122173
57.71097421,0,0.00122173,-0.001832596
57.76097421,-0.013439035,0.012217305,-0.004276057
57.81097421,-0.01038471,-0.010995574,-0.009162978
57.86097421,-0.006108652,0.001832596,-0.006719518
57.91097421,-0.000610865,-0.008552114,-0.014049901
57.96097421,0.026267206,0.001832596,-0.008552114
58.01097421,0.003054326,-0.009162978,-0.006719518
58.06097421,-0.019547688,0,-0.01282817
58.11097421,-0.001832596,-0.008552114,-0.004886922
58.16097421,-0.000610865,0.021380283,-0.002443461
58.21097421,-0.020769419,-0.017104227,-0.009162978
58.26097421,-0.004276057,0.018936822,-0.000610865
58.31097421,-0.003665192,-0.000610865,-0.000610865
58.36097421,0,0.009162978,0.009773844
58.41097421,-0.026267206,-0.003665192,0.007941248
58.46097421,-0.017104227,-0.006108652,0.010995574
58.51097421,-0.00122173,-0.002443461,0.009162978
58.56097421,-0.080023348,0.040927973,0.01038471
58.61097421,-0.140499011,-0.004276057,0.014049901
58.66097421,-0.062308256,-0.021991149,0.007941248
58.71097421,0.209526777,-0.009162978,-0.000610865
58.76097421,0.240680903,0.027488936,-0.035430186
58.81097421,0.266948104,-0.002443461,-0.019547688
58.86097421,0.185703039,0.001832596,-0.020769419
58.91097421,0.062308256,-0.039095376,-0.02687807
58.96097421,0.017715093,0.001832596,-0.006719518
59.01097421,-0.018936822,-0.007941248,0.013439035
59.06097421,-0.008552114,0.032375857,0.017715093
59.11097421,0.006108652,-0.017104227,-0.004276057
59.16097421,0.037262779,-0.017104227,0.012217305
59.21097421,0.039706241,0.017715093,-0.002443461
59.26097421,-0.01282817,-0.015271631,0.000610865
59.31097421,-0.033597589,-0.004886922,0.018325957
59.36097421,-0.039095376,-0.003665192,0.00122173
59.41097421,-0.017715093,0.032986723,0.013439035
59.46097421,-0.037262779,-0.030543262,0.020158554
59.51097421,-0.049480084,-0.064751714,0.031764992
59.56097421,0.018936822,-0.0580322,0.015271631
59.61097421,0.126449108,-0.109955743,-0.020158554
59.66097421,0.108734012,0.028099801,-0.02321288
59.71097421,0.036651913,0.018936822,0
59.76097421,-0.020769419,-0.000610865,0.005497787
59.81097421,-0.06963864,0.012217305,-0.000610865
59.86097421,-0.067806043,0.01282817,0.003054326
59.91097421,-0.0421497,-0.029932396,-0.009773844
59.96097421,-0.018325957,0.026267206,-0.018936822
60.01097421,0.010995574,-0.005497787,-0.021991149
60.06097421,0.032375857,0.004886922,-0.049480084
60.11097421,0.048258353,-0.009162978,-0.02321288
60.16097421,-0.017715093,0.013439035,-0.003054326
60.21097421,-0.109344877,0.053145275,0.037873644
60.26097421,-0.103847094,-0.012217305,-0.008552114
60.31097421,-0.015271631,-0.02687807,0.006719518
60.36097421,0.062308256,0.003054326,0.049480084
60.41097421,0.0842994,-0.020769419,0.029932396
60.46097421,0.136222944,-0.002443461,-0.015271631
60.51097421,0.216246292,-0.05009095,-0.06169739
60.56097421,0.349414915,-0.020769419,-0.059253927
60.61097421,0.181426972,0.086742863,-0.002443461
60.66097421,-0.164933622,0.116675265,-0.025656341
60.71097421,-0.350636661,0.003054326,-0.056810468
60.76097421,-0.257174254,-0.034208454,0.028099801
60.81097421,-0.078801617,-0.027488936,0.01160644
60.86097421,0.045204028,0.062308256,-0.036041051
60.91097421,-0.007941248,0.106901415,-0.028099801
60.96097421,-0.094684117,0.009773844,0
61.01097421,0.030543262,-0.019547688,-0.001832596
61.06097421,0.086131997,0.004886922,0.005497787
61.11097421,-0.014049901,0.028710667,-0.000610865
61.16097421,-0.013439035,-0.021991149,0.000610865
61.21097421,0.014049901,0.014049901,0.010995574
61.26097421,0.034208454,-0.003054326,-0.007330383
61.31097421,0.021380283,-0.004886922,0.003054326
61.36097421,-0.026267206,0.003665192,-0.001832596
61.41097421,-0.029932396,-0.005497787,0.015882496
61.46097421,-0.048258353,0.01282817,0.01160644
61.51097421,-0.004276057,-0.017715093,0.001832596
61.56097421,-0.007941248,0.029932396,0.007941248
61.61097421,0.014049901,-0.018936822,-0.003665192
61.66097421,-0.008552114,0.008552114,-0.005497787
61.71097421,-0.017104227,0.012217305,0.014049901
61.76097421,-0.022602014,-0.01282817,-0.000610865
61.81097421,-0.017715093,0.030543262,-0.004276057
61.86097421,0.007941248,0.017715093,0.004886922
61.91097421,-0.00122173,0.004276057,-0.007941248
61.96097421,-0.005497787,-0.004276057,-0.003665192
62.01097421,-0.019547688,0.004886922,-0.004886922
62.06097421,-0.017104227,0.015882496,0.002443461
62.11097421,-0.007941248,-0.01160644,-0.010995574
62.16097421,0.04642576,0.014660766,0.005497787
62.21097421,-0.004276057,-0.007330383,-0.006719518
62.26097421,-0.002443461,0.010995574,0.008552114
62.31097421,-0.017104227,0.005497787,0.003054326
62.36097421,-0.020769419,0.006108652,0.002443461
62.41097421,-0.022602014,0.000610865,-0.002443461
62.46097421,-0.013439035,0.000610865,0.008552114
62.51097421,-0.004886922,0.003054326,0.002443461
62.56097421,-0.01282817,0.00122173,0.001832596
62.61097421,-0.01160644,0.018936822,0.004276057
62.66097421,0.007330383,0.001832596,-0.00122173
62.71097421,0.002443461,0.026267206,-0.007941248
62.76097421,0.009773844,0.017715093,0.004276057
62.81097421,-0.018325957,-0.002443461,0.000610865
62.86097421,0.00122173,-0.006108652,0.002443461
62.91097421,0.003665192,0.01038471,-0.006719518
62.96097421,0.02321288,-0.013439035,0
63.01097421,-0.001832596,-0.000610865,-0.009162978
63.06097421,-0.01160644,0.003665192,-0.009162978
63.11097421,-0.017715093,-0.007330383,-0.01160644
63.16097421,-0.004886922,0.001832596,-0.008552114
63.21097421,0.002443461,-0.005497787,0
63.26097421,0.01038471,-0.010995574,-0.003054326
63.31097421,0.01038471,0.007941248,0.005497787
63.36097421,0.005497787,0.020158554,0.007330383
63.41097421,0.013439035,0.000610865,-0.002443461
63.46097421,0.01282817,0.015271631,0.01038471
63.51097421,0.009162978,0.015882496,0.012217305
63.56097421,-0.015271631,-0.004886922,0.006719518
63.61097421,-0.029932396,0.003665192,0.008552114
63.66097421,-0.01282817,-0.001832596,0.004886922
63.71097421,-0.007941248,0.001832596,-0.002443461
63.76097421,0.017715093,0.003665192,0.001832596
63.81097421,-0.009773844,-0.006108652,-0.004276057
63.86097421,-0.003665192,-0.003665192,0.006108652
63.91097421,-0.002443461,-0.006719518,-0.006108652
63.96097421,-0.001832596,0.005497787,-0.006108652
64.01097421,-0.004276057,0.001832596,-0.003054326
64.06097421,0.006108652,0.01282817,-0.001832596
64.11097421,0.003665192,-0.004886922,-0.00122173
64.16097421,0.001832596,0.007941248,0.003054326
64.21097421,-0.00122173,-0.005497787,0.006108652
64.26097421,0.029932396,0.003054326,0.002443461
64.31097421,0.044593163,0.003665192,0.005497787
64.36097421,0.022602014,-0.002443461,0.005497787
64.41097421,-0.005497787,-0.005497787,0.007330383
64.46097421,-0.027488936,0.008552114,0.003054326
64.51097421,-0.018325957,0.013439035,-0.000610865
64.56097421,-0.003054326,0.014049901,-0.006108652
64.61097421,0,0.003665192,0.001832596
64.66097421,0.003665192,0.001832596,0.00122173
64.71097421,0.005497787,0.007941248,-0.002443461
64.76097421,0,0.008552114,0.003665192
64.81097421,-0.01038471,0.006719518,0.003054326
64.86097421,-0.031154128,-0.008552114,0.000610865
64.91097421,0.009773844,-0.001832596,0.000610865
