Time (s),Acceleration x (m/s^2),Acceleration y (m/s^2),Acceleration z (m/s^2)
0.045564336,-0.011971008,0.155623108,9.689333916
0.08561082,-0.02873042,0.174776718,9.823410034
0.13561082,-0.026336219,0.174776718,9.701305389
0.18561082,-0.026336219,0.181959331,9.718064308
0.23561082,-0.009576807,0.174776718,9.732429504
0.28561082,-0.016759412,0.158017308,9.739612579
0.33561082,-0.026336219,0.181959331,9.739612579
0.38561082,-0.021547815,0.169988319,9.746794701
0.43561082,-0.031124622,0.174776718,9.727641106
0.48561082,-0.016759412,0.177170932,9.734824181
0.53561082,-0.021547815,0.172382519,9.737217903
0.58561082,-0.021547815,0.177170932,9.744400978
0.63561082,-0.016759412,0.169988319,9.739612579
0.68561082,-0.019153614,0.172382519,9.730035782
0.73561082,-0.023942016,0.172382519,9.746794701
0.78561082,-0.021547815,0.179565132,9.756371498
0.83561082,-0.023942016,0.177170932,9.744400978
0.88561082,-0.021547815,0.172382519,9.732429504
0.93561082,-0.026336219,0.172382519,9.732429504
0.98561082,-0.01436521,0.177170932,9.742006302
1.03561082,-0.026336219,0.169988319,9.734824181
1.08561082,-0.02873042,0.169988319,9.730035782
1.13561082,-0.026336219,0.177170932,9.753977776
1.18561082,-0.02873042,0.172382519,9.727641106
1.23561082,-0.031124622,0.162805721,9.742006302
1.28561082,-0.026336219,0.162805721,9.737217903
1.33561082,-0.026336219,0.174776718,9.722852707
1.38561082,-0.023942016,0.169988319,9.742006302
1.43561082,-0.023942016,0.169988319,9.742006302
1.48561082,-0.023942016,0.174776718,9.737217903
1.53561082,-0.021547815,0.179565132,9.737217903
1.58561082,-0.011971008,0.174776718,9.730035782
1.63561082,-0.023942016,0.169988319,9.756371498
1.68561082,-0.019153614,0.177170932,9.737217903
1.73561082,-0.033518825,0.174776718,9.751583099
1.78561082,-0.02873042,0.165199921,9.746794701
1.83561082,-0.021547815,0.179565132,9.742006302
1.88561082,-0.01436521,0.165199921,9.742006302
1.93561082,-0.019153614,0.179565132,9.742006302
1.98561082,-0.026336219,0.165199921,9.742006302
2.03561082,-0.023942016,0.174776718,9.749189377
2.08561082,-0.023942016,0.177170932,9.751583099
2.13561082,-0.033518825,0.181959331,9.737217903
2.18561082,-0.02873042,0.172382519,9.737217903
2.23561082,-0.016759412,0.174776718,9.744400978
2.28561082,-0.016759412,0.169988319,9.744400978
2.33561082,-0.01436521,0.177170932,9.737217903
2.38561082,-0.019153614,0.18435353,9.758766174
2.43561082,-0.021547815,0.169988319,9.761159897
2.48561082,-0.021547815,0.179565132,9.744400978
2.53561082,-0.02873042,0.181959331,9.742006302
2.58561082,-0.031124622,0.165199921,9.730035782
2.63561082,-0.035913024,0.16759412,9.753977776
2.68561082,-0.026336219,0.172382519,9.753977776
2.73561082,-0.023942016,0.174776718,9.744400978
2.78561082,-0.019153614,0.16759412,9.730035782
2.83561082,-0.021547815,0.16759412,9.742006302
2.88561082,-0.016759412,0.179565132,9.739612579
2.93561082,-0.02873042,0.174776718,9.739612579
2.98561082,-0.026336219,0.179565132,9.746794701
3.03561082,-0.023942016,0.172382519,9.739612579
3.08561082,-0.026336219,0.172382519,9.744400978
3.13561082,-0.026336219,0.172382519,9.727641106
3.18561082,-0.023942016,0.16759412,9.737217903
3.23561082,-0.019153614,0.172382519,9.744400978
3.28561082,-0.021547815,0.16759412,9.739612579
3.33561082,-0.031124622,0.172382519,9.753977776
3.38561082,-0.019153614,0.177170932,9.746794701
3.43561082,-0.019153614,0.169988319,9.739612579
3.48561082,-0.019153614,0.177170932,9.739612579
3.53561082,-0.026336219,0.169988319,9.734824181
3.58561082,-0.02873042,0.169988319,9.739612579
3.63561082,-0.033518825,0.174776718,9.746794701
3.68561082,-0.021547815,0.172382519,9.749189377
3.73561082,-0.021547815,0.16759412,9.749189377
3.78561082,-0.02873042,0.155623108,9.751583099
3.83561082,-0.035913024,0.174776718,9.737217903
3.88561082,-0.023942016,0.172382519,9.744400978
3.93561082,-0.023942016,0.169988319,9.749189377
3.98561082,-0.021547815,0.174776718,9.744400978
4.03561082,-0.021547815,0.169988319,9.737217903
4.08561082,-0.021547815,0.165199921,9.742006302
4.13561082,-0.031124622,0.158017308,9.742006302
4.18561082,-0.023942016,0.16759412,9.756371498
4.23561082,-0.026336219,0.172382519,9.737217903
4.28561082,-0.02873042,0.165199921,9.739612579
4.33561082,-0.02873042,0.174776718,9.732429504
4.38561082,-0.026336219,0.172382519,9.737217903
4.43561082,-0.016759412,0.181959331,9.744400978
4.48561082,-0.02873042,0.172382519,9.730035782
4.53561082,-0.033518825,0.174776718,9.737217903
4.58561082,-0.01436521,0.174776718,9.749189377
4.63561082,-0.026336219,0.169988319,9.737217903
4.68561082,-0.023942016,0.174776718,9.732429504
4.73561082,-0.011971008,0.162805721,9.746794701
4.78561082,-0.031124622,0.172382519,9.744400978
4.83561082,-0.01436521,0.165199921,9.756371498
4.88561082,-0.019153614,0.16759412,9.737217903
4.93561082,-0.023942016,0.177170932,9.744400978
4.98561082,-0.035913024,0.162805721,9.749189377
5.03561082,-0.016759412,0.165199921,9.746794701
5.08561082,-0.019153614,0.16759412,9.751583099
5.13561082,-0.023942016,0.172382519,9.734824181
5.18561082,-0.021547815,0.169988319,9.753977776
5.23561082,-0.031124622,0.172382519,9.744400978
5.28561082,-0.031124622,0.169988319,9.742006302
5.33561082,-0.031124622,0.181959331,9.758766174
5.38561082,-0.019153614,0.172382519,9.739612579
5.43561082,-0.021547815,0.181959331,9.737217903
5.48561082,-0.021547815,0.181959331,9.742006302
5.53561082,-0.026336219,0.177170932,9.742006302
5.58561082,-0.026336219,0.172382519,9.744400978
5.63561082,-0.02873042,0.174776718,9.751583099
5.68561082,-0.016759412,0.16759412,9.732429504
5.73561082,-0.033518825,0.172382519,9.739612579
5.78561082,-0.023942016,0.172382519,9.758766174
5.83561082,-0.026336219,0.177170932,9.744400978
5.88561082,-0.021547815,0.16759412,9.756371498
5.93561082,-0.02873042,0.165199921,9.751583099
5.98561082,-0.021547815,0.177170932,9.739612579
6.03561082,-0.019153614,0.16759412,9.749189377
6.08561082,-0.023942016,0.179565132,9.749189377
6.13561082,-0.021547815,0.169988319,9.744400978
6.18561082,-0.02873042,0.18435353,9.742006302
6.23561082,-0.026336219,0.177170932,9.732429504
6.28561082,-0.019153614,0.179565132,9.744400978
6.33561082,-0.026336219,0.179565132,9.746794701
6.38561082,-0.011971008,0.165199921,9.744400978
6.43561082,-0.023942016,0.177170932,9.746794701
6.48561082,-0.026336219,0.169988319,9.746794701
6.53561082,-0.021547815,0.162805721,9.742006302
6.58561082,-0.023942016,0.18435353,9.739612579
6.63561082,-0.019153614,0.165199921,9.746794701
6.68561082,-0.038307227,0.177170932,9.746794701
6.73561082,-0.016759412,0.177170932,9.742006302
6.78561082,-0.026336219,0.179565132,9.744400978
6.83561082,-0.01436521,0.172382519,9.751583099
6.88561082,-0.02873042,0.165199921,9.742006302
6.93561082,-0.019153614,0.165199921,9.744400978
6.98561082,-0.019153614,0.172382519,9.727641106
7.03561082,-0.02873042,0.177170932,9.744400978
7.08561082,-0.02873042,0.16759412,9.746794701
7.13561082,-0.023942016,0.169988319,9.739612579
7.18561082,-0.023942016,0.169988319,9.742006302
7.23561082,-0.031124622,0.162805721,9.746794701
7.28561082,-0.033518825,0.172382519,9.753977776
7.33561082,-0.011971008,0.172382519,9.734824181
7.38561082,-0.016759412,0.172382519,9.737217903
7.43561082,-0.026336219,0.174776718,9.732429504
7.48561082,-0.023942016,0.18435353,9.734824181
7.53561082,-0.016759412,0.16759412,9.749189377
7.58561082,-0.021547815,0.179565132,9.749189377
7.63561082,-0.02873042,0.162805721,9.742006302
7.68561082,-0.021547815,0.172382519,9.753977776
7.73561082,-0.031124622,0.172382519,9.737217903
7.78561082,-0.023942016,0.172382519,9.739612579
7.83561082,-0.01436521,0.177170932,9.739612579
7.88561082,-0.016759412,0.16759412,9.758766174
7.93561082,-0.02873042,0.179565132,9.749189377
7.98561082,-0.026336219,0.174776718,9.722852707
8.03561082,-0.021547815,0.181959331,9.746794701
8.08561082,-0.02873042,0.181959331,9.737217903
8.13561082,-0.023942016,0.169988319,9.739612579
8.18561082,-0.026336219,0.177170932,9.737217903
8.23561082,-0.023942016,0.174776718,9.749189377
8.28561082,-0.021547815,0.174776718,9.734824181
8.33561082,-0.021547815,0.16759412,9.744400978
8.38561082,-0.019153614,0.172382519,9.734824181
8.43561082,-0.026336219,0.160411507,9.739612579
8.48561082,-0.026336219,0.169988319,9.744400978
8.53561082,-0.019153614,0.158017308,9.739612579
8.58561082,-0.033518825,0.165199921,9.746794701
8.63561082,-0.023942016,0.169988319,9.744400978
8.68561082,-0.026336219,0.169988319,9.739612579
8.73561082,-0.02873042,0.162805721,9.742006302
8.78561082,-0.02873042,0.172382519,9.737217903
8.83561082,-0.021547815,0.16759412,9.751583099
8.88561082,-0.026336219,0.169988319,9.746794701
8.93561082,-0.023942016,0.169988319,9.739612579
8.98561082,-0.011971008,0.172382519,9.734824181
9.03561082,-0.021547815,0.162805721,9.744400978
9.08561082,-0.01436521,0.177170932,9.727641106
9.13561082,-0.021547815,0.174776718,9.751583099
9.18561082,-0.021547815,0.165199921,9.739612579
9.23561082,-0.023942016,0.172382519,9.746794701
9.28561082,-0.031124622,0.169988319,9.739612579
9.33561082,-0.023942016,0.169988319,9.746794701
9.38561082,-0.02873042,0.172382519,9.742006302
9.43561082,-0.019153614,0.169988319,9.749189377
9.48561082,-0.019153614,0.179565132,9.744400978
9.53561082,-0.016759412,0.169988319,9.761159897
9.58561082,-0.021547815,0.174776718,9.742006302
9.63561082,-0.019153614,0.18435353,9.744400978
9.68561082,-0.023942016,0.160411507,9.749189377
9.73561082,-0.026336219,0.172382519,9.744400978
9.78561082,-0.023942016,0.169988319,9.737217903
9.83561082,-0.023942016,0.172382519,9.739612579
9.88561082,-0.023942016,0.181959331,9.734824181
9.93561082,-0.02873042,0.179565132,9.739612579
9.98561082,-0.016759412,0.177170932,9.730035782
10.03561082,-0.023942016,0.172382519,9.734824181
10.08561082,-0.026336219,0.177170932,9.734824181
10.13561082,-0.02873042,0.165199921,9.742006302
10.18561082,-0.021547815,0.174776718,9.744400978
10.23561082,-0.023942016,0.169988319,9.749189377
10.28561082,-0.031124622,0.179565132,9.737217903
10.33561082,-0.023942016,0.16759412,9.751583099
10.38561082,-0.026336219,0.177170932,9.742006302
10.43561082,-0.02873042,0.172382519,9.739612579
10.48561082,-0.016759412,0.169988319,9.737217903
10.53561082,-0.021547815,0.177170932,9.742006302
10.58561082,-0.021547815,0.174776718,9.739612579
10.63561082,-0.023942016,0.177170932,9.746794701
10.68561082,-0.023942016,0.172382519,9.749189377
10.73561082,-0.023942016,0.181959331,9.744400978
10.78561082,-0.021547815,0.177170932,9.749189377
10.83561082,-0.031124622,0.16759412,9.739612579
10.88561082,-0.021547815,0.177170932,9.742006302
10.93561082,-0.023942016,0.174776718,9.746794701
10.98561082,-0.01436521,0.172382519,9.751583099
11.03561082,-0.019153614,0.174776718,9.737217903
11.08561082,-0.02873042,0.172382519,9.746794701
11.13561082,-0.016759412,0.174776718,9.744400978
11.18561082,-0.021547815,0.177170932,9.742006302
11.23561082,-0.023942016,0.181959331,9.739612579
11.28561082,-0.023942016,0.172382519,9.734824181
11.33561082,-0.02873042,0.177170932,9.737217903
11.38561082,-0.016759412,0.162805721,9.732429504
11.43561082,-0.023942016,0.177170932,9.732429504
11.48561082,-0.01436521,0.165199921,9.742006302
11.53561082,-0.023942016,0.169988319,9.737217903
11.58561082,-0.031124622,0.169988319,9.753977776
11.63561082,-0.023942016,0.16759412,9.744400978
11.68561082,-0.026336219,0.169988319,9.739612579
11.73561082,-0.021547815,0.169988319,9.753977776
11.78561082,-0.026336219,0.172382519,9.753977776
11.83561082,-0.023942016,0.169988319,9.744400978
11.88561082,-0.023942016,0.18674773,9.744400978
11.93561082,-0.023942016,0.172382519,9.746794701
11.98561082,-0.02873042,0.169988319,9.758766174
12.03561082,-0.023942016,0.172382519,9.734824181
12.08561082,-0.026336219,0.16759412,9.753977776
12.13561082,-0.021547815,0.181959331,9.739612579
12.18561082,-0.019153614,0.172382519,9.742006302
12.23561082,-0.023942016,0.179565132,9.739612579
12.28561082,-0.021547815,0.16759412,9.749189377
12.33561082,-0.019153614,0.172382519,9.746794701
12.38561082,-0.021547815,0.177170932,9.746794701
12.43561082,-0.026336219,0.172382519,9.742006302
12.48561082,-0.023942016,0.16759412,9.744400978
12.53561082,-0.02873042,0.16759412,9.737217903
12.58561082,-0.038307227,0.158017308,9.746794701
12.63561082,-0.011971008,0.169988319,9.749189377
12.68561082,-0.021547815,0.177170932,9.744400978
12.73561082,-0.021547815,0.165199921,9.756371498
12.78561082,-0.02873042,0.162805721,9.746794701
12.83561082,-0.026336219,0.169988319,9.734824181
12.88561082,-0.023942016,0.169988319,9.739612579
12.93561082,-0.026336219,0.177170932,9.763554573
12.98561082,-0.023942016,0.179565132,9.744400978
13.03561082,-0.026336219,0.169988319,9.751583099
13.08561082,-0.019153614,0.174776718,9.742006302
13.13561082,-0.031124622,0.162805721,9.753977776
13.18561082,-0.019153614,0.16759412,9.734824181
13.23561082,-0.016759412,0.174776718,9.739612579
13.28561082,-0.021547815,0.179565132,9.761159897
13.33561082,-0.021547815,0.16759412,9.744400978
13.38561082,-0.021547815,0.169988319,9.749189377
13.43561082,-0.016759412,0.16759412,9.753977776
13.48561082,-0.031124622,0.165199921,9.749189377
13.53561082,-0.016759412,0.179565132,9.749189377
13.58561082,-0.021547815,0.169988319,9.756371498
13.63561082,-0.02873042,0.172382519,9.744400978
13.68561082,-0.026336219,0.179565132,9.746794701
13.73561082,-0.021547815,0.172382519,9.749189377
13.78561082,-0.026336219,0.165199921,9.758766174
13.83561082,-0.016759412,0.165199921,9.753977776
13.88561082,-0.023942016,0.172382519,9.746794701
13.93561082,-0.019153614,0.174776718,9.744400978
13.98561082,-0.033518825,0.179565132,9.753977776
14.03561082,-0.023942016,0.181959331,9.751583099
14.08561082,-0.021547815,0.177170932,9.732429504
14.13561082,-0.031124622,0.174776718,9.742006302
14.18561082,-0.021547815,0.169988319,9.756371498
14.23561082,-0.023942016,0.177170932,9.758766174
14.28561082,-0.021547815,0.169988319,9.739612579
14.33561082,-0.023942016,0.174776718,9.746794701
14.38561082,-0.01436521,0.169988319,9.744400978
14.43561082,-0.021547815,0.165199921,9.746794701
14.48561082,-0.021547815,0.172382519,9.751583099
14.53561082,-0.02873042,0.169988319,9.749189377
14.58561082,-0.02873042,0.172382519,9.746794701
14.63561082,-0.019153614,0.165199921,9.737217903
14.68561082,-0.02873042,0.16759412,9.751583099
14.73561082,-0.021547815,0.177170932,9.751583099
14.78561082,-0.019153614,0.165199921,9.746794701
14.83561082,-0.021547815,0.174776718,9.746794701
14.88561082,-0.021547815,0.165199921,9.753977776
14.93561082,-0.021547815,0.177170932,9.737217903
14.98561082,-0.031124622,0.172382519,9.744400978
15.03561082,-0.026336219,0.179565132,9.749189377
15.08561082,-0.026336219,0.169988319,9.742006302
15.13561082,-0.021547815,0.169988319,9.742006302
15.18561082,-0.02873042,0.174776718,9.751583099
15.23561082,-0.01436521,0.172382519,9.739612579
15.28561082,-0.021547815,0.169988319,9.758766174
15.33561082,-0.019153614,0.16759412,9.744400978
15.38561082,-0.023942016,0.177170932,9.749189377
15.43561082,-0.026336219,0.16759412,9.749189377
15.48561082,-0.023942016,0.179565132,9.749189377
15.53561082,-0.016759412,0.165199921,9.744400978
15.58561082,-0.011971008,0.169988319,9.744400978
15.63561082,-0.023942016,0.172382519,9.744400978
15.68561082,-0.016759412,0.172382519,9.742006302
15.73561082,-0.031124622,0.191536129,9.742006302
15.78561082,-0.026336219,0.174776718,9.742006302
15.83561082,-0.023942016,0.162805721,9.749189377
15.88561082,-0.026336219,0.174776718,9.744400978
15.93561082,-0.023942016,0.16759412,9.732429504
15.98561082,-0.021547815,0.160411507,9.763554573
16.03561082,-0.019153614,0.177170932,9.746794701
16.08561082,-0.016759412,0.162805721,9.737217903
16.13561082,-0.021547815,0.172382519,9.746794701
16.18561082,-0.026336219,0.177170932,9.737217903
16.23561082,-0.016759412,0.177170932,9.739612579
16.28561082,-0.026336219,0.172382519,9.746794701
16.33561082,-0.023942016,0.172382519,9.742006302
16.38561082,-0.035913024,0.172382519,9.746794701
16.43561082,-0.023942016,0.158017308,9.749189377
16.48561082,-0.016759412,0.174776718,9.737217903
16.53561082,-0.02873042,0.179565132,9.744400978
16.58561082,-0.021547815,0.169988319,9.744400978
16.63561082,-0.016759412,0.16759412,9.744400978
16.68561082,-0.033518825,0.177170932,9.749189377
16.73561082,-0.016759412,0.174776718,9.761159897
16.78561082,-0.021547815,0.179565132,9.751583099
16.83561082,-0.026336219,0.174776718,9.739612579
16.88561082,-0.019153614,0.174776718,9.756371498
16.93561082,-0.021547815,0.169988319,9.739612579
16.98561082,-0.019153614,0.162805721,9.734824181
17.03561082,-0.026336219,0.16759412,9.746794701
17.08561082,-0.016759412,0.172382519,9.744400978
17.13561082,-0.021547815,0.172382519,9.730035782
17.18561082,-0.011971008,0.177170932,9.734824181
17.23561082,-0.023942016,0.165199921,9.749189377
17.28561082,-0.026336219,0.165199921,9.751583099
17.33561082,-0.019153614,0.172382519,9.751583099
17.38561082,-0.019153614,0.181959331,9.732429504
17.43561082,-0.021547815,0.16759412,9.746794701
17.48561082,-0.019153614,0.169988319,9.742006302
17.53561082,-0.019153614,0.16759412,9.744400978
17.58561082,-0.023942016,0.177170932,9.753977776
17.63561082,-0.016759412,0.165199921,9.730035782
17.68561082,-0.031124622,0.169988319,9.746794701
17.73561082,-0.031124622,0.174776718,9.749189377
17.78561082,-0.023942016,0.155623108,9.739612579
17.83561082,-0.021547815,0.16759412,9.753977776
17.88561082,-0.026336219,0.177170932,9.746794701
17.93561082,-0.016759412,0.172382519,9.739612579
17.98561082,-0.019153614,0.162805721,9.753977776
18.03561082,-0.023942016,0.16759412,9.742006302
18.08561082,-0.023942016,0.174776718,9.725247383
18.13561082,-0.026336219,0.179565132,9.751583099
18.18561082,-0.031124622,0.172382519,9.730035782
18.23561082,-0.01436521,0.181959331,9.749189377
18.28561082,-0.031124622,0.174776718,9.737217903
18.33561082,-0.035913024,0.177170932,9.737217903
18.38561082,-0.031124622,0.177170932,9.732429504
18.43561082,-0.02873042,0.165199921,9.744400978
18.48561082,-0.023942016,0.172382519,9.737217903
18.53561082,-0.021547815,0.16759412,9.744400978
18.58561082,-0.021547815,0.165199921,9.734824181
18.63561082,-0.026336219,0.165199921,9.753977776
18.68561082,-0.031124622,0.172382519,9.734824181
18.73561082,-0.023942016,0.16759412,9.753977776
18.78561082,-0.019153614,0.172382519,9.761159897
18.83561082,-0.02873042,0.16759412,9.751583099
18.88561082,-0.026336219,0.169988319,9.722852707
18.93561082,-0.021547815,0.18435353,9.725247383
18.98561082,-0.023942016,0.169988319,9.730035782
19.03561082,-0.026336219,0.158017308,9.746794701
19.08561082,-0.026336219,0.169988319,9.746794701
19.13561082,-0.023942016,0.172382519,9.749189377
19.18561082,-0.016759412,0.172382519,9.746794701
19.23561082,-0.021547815,0.177170932,9.734824181
19.28561082,-0.019153614,0.16759412,9.744400978
19.33561082,-0.01436521,0.165199921,9.734824181
19.38561082,-0.026336219,0.172382519,9.751583099
19.43561082,-0.02873042,0.160411507,9.749189377
19.48561082,-0.026336219,0.165199921,9.739612579
19.53561082,-0.026336219,0.162805721,9.730035782
19.58561082,-0.019153614,0.16759412,9.751583099
19.63561082,-0.02873042,0.172382519,9.746794701
19.68561082,-0.02873042,0.162805721,9.732429504
19.73561082,-0.01436521,0.181959331,9.739612579
19.78561082,-0.019153614,0.16759412,9.749189377
19.83561082,-0.016759412,0.162805721,9.744400978
19.88561082,-0.01436521,0.172382519,9.751583099
19.93561082,-0.021547815,0.16759412,9.732429504
19.98561082,-0.021547815,0.162805721,9.732429504
20.03561082,-0.016759412,0.177170932,9.734824181
20.08561082,-0.019153614,0.172382519,9.744400978
20.13561082,-0.031124622,0.16759412,9.739612579
20.18561082,-0.026336219,0.172382519,9.744400978
20.23561082,-0.026336219,0.177170932,9.742006302
20.28561082,-0.021547815,0.16759412,9.730035782
20.33561082,-0.026336219,0.177170932,9.746794701
20.38561082,-0.033518825,0.172382519,9.744400978
20.43561082,-0.021547815,0.16759412,9.749189377
20.48561082,-0.023942016,0.165199921,9.742006302
20.53561082,-0.026336219,0.177170932,9.746794701
20.58561082,-0.023942016,0.169988319,9.730035782
20.63561082,-0.023942016,0.169988319,9.732429504
20.68561082,-0.026336219,0.165199921,9.742006302
20.73561082,-0.023942016,0.169988319,9.744400978
20.78561082,-0.026336219,0.177170932,9.744400978
20.83561082,-0.021547815,0.174776718,9.746794701
20.88561082,-0.021547815,0.181959331,9.751583099
20.93561082,-0.026336219,0.177170932,9.737217903
20.98561082,-0.023942016,0.169988319,9.744400978
21.03561082,-0.031124622,0.179565132,9.734824181
21.08561082,-0.02873042,0.174776718,9.751583099
21.13561082,-0.026336219,0.16759412,9.744400978
21.18561082,-0.019153614,0.16759412,9.739612579
21.23561082,-0.011971008,0.16759412,9.751583099
21.28561082,-0.02873042,0.172382519,9.753977776
21.33561082,-0.026336219,0.165199921,9.749189377
21.38561082,-0.023942016,0.16759412,9.746794701
21.43561082,-0.019153614,0.181959331,9.730035782
21.48561082,-0.019153614,0.172382519,9.737217903
21.53561082,-0.019153614,0.172382519,9.746794701
21.58561082,-0.019153614,0.172382519,9.737217903
21.63561082,-0.026336219,0.16759412,9.744400978
21.68561082,-0.026336219,0.169988319,9.742006302
21.73561082,-0.019153614,0.172382519,9.742006302
21.78561082,-0.023942016,0.165199921,9.756371498
21.83561082,-0.01436521,0.169988319,9.737217903
21.88561082,-0.023942016,0.169988319,9.753977776
21.93561082,-0.023942016,0.172382519,9.749189377
21.98561082,-0.026336219,0.165199921,9.744400978
22.03561082,-0.026336219,0.16759412,9.756371498
22.08561082,-0.031124622,0.16759412,9.730035782
22.13561082,-0.019153614,0.177170932,9.737217903
22.18561082,-0.02873042,0.16759412,9.753977776
22.23561082,-0.023942016,0.169988319,9.744400978
22.28561082,-0.033518825,0.172382519,9.742006302
22.33561082,-0.026336219,0.169988319,9.756371498
22.38561082,-0.011971008,0.177170932,9.742006302
22.43561082,-0.031124622,0.177170932,9.730035782
22.48561082,-0.035913024,0.179565132,9.734824181
22.53561082,-0.019153614,0.177170932,9.761159897
22.58561082,-0.021547815,0.174776718,9.746794701
22.63561082,-0.023942016,0.179565132,9.749189377
22.68561082,-0.023942016,0.177170932,9.749189377
22.73561082,-0.021547815,0.179565132,9.744400978
22.78561082,-0.033518825,0.16759412,9.744400978
22.83561082,-0.023942016,0.177170932,9.756371498
22.88561082,-0.021547815,0.179565132,9.730035782
22.93561082,-0.033518825,0.158017308,9.734824181
22.98561082,-0.02873042,0.16759412,9.744400978
23.03561082,-0.019153614,0.177170932,9.737217903
23.08561082,-0.02873042,0.16759412,9.734824181
23.13561082,-0.023942016,0.162805721,9.739612579
23.18561082,-0.019153614,0.172382519,9.753977776
23.23561082,-0.021547815,0.165199921,9.732429504
23.28561082,-0.023942016,0.177170932,9.746794701
23.33561082,-0.021547815,0.160411507,9.746794701
23.38561082,-0.019153614,0.169988319,9.746794701
23.43561082,-0.026336219,0.174776718,9.742006302
23.48561082,-0.033518825,0.174776718,9.737217903
23.53561082,-0.021547815,0.177170932,9.753977776
23.58561082,-0.033518825,0.172382519,9.753977776
23.63561082,-0.02873042,0.172382519,9.746794701
23.68561082,-0.026336219,0.174776718,9.761159897
23.73561082,-0.026336219,0.174776718,9.761159897
23.78561082,-0.026336219,0.172382519,9.744400978
23.83561082,-0.023942016,0.172382519,9.744400978
23.88561082,-0.026336219,0.172382519,9.742006302
23.93561082,-0.021547815,0.16759412,9.753977776
23.98561082,-0.026336219,0.172382519,9.763554573
24.03561082,-0.004788403,0.16759412,9.739612579
24.08561082,-0.019153614,0.16759412,9.727641106
24.13561082,-0.016759412,0.174776718,9.732429504
24.18561082,-0.023942016,0.162805721,9.749189377
24.23561082,-0.02873042,0.160411507,9.742006302
24.28561082,-0.02873042,0.16759412,9.746794701
24.33561082,-0.019153614,0.165199921,9.739612579
24.38561082,-0.023942016,0.169988319,9.742006302
24.43561082,-0.016759412,0.16759412,9.734824181
24.48561082,-0.021547815,0.169988319,9.751583099
24.53561082,-0.026336219,0.162805721,9.751583099
24.58561082,-0.021547815,0.162805721,9.746794701
24.63561082,-0.016759412,0.169988319,9.749189377
24.68561082,-0.016759412,0.177170932,9.753977776
24.73561082,-0.019153614,0.165199921,9.756371498
24.78561082,-0.026336219,0.172382519,9.751583099
24.83561082,-0.016759412,0.169988319,9.744400978
24.88561082,-0.035913024,0.179565132,9.746794701
24.93561082,-0.02873042,0.169988319,9.749189377
24.98561082,-0.026336219,0.172382519,9.746794701
25.03561082,-0.026336219,0.181959331,9.756371498
25.08561082,-0.011971008,0.174776718,9.749189377
25.13561082,-0.021547815,0.179565132,9.746794701
25.18561082,-0.021547815,0.174776718,9.746794701
25.23561082,-0.02873042,0.16759412,9.746794701
25.28561082,-0.016759412,0.169988319,9.746794701
25.33561082,-0.026336219,0.177170932,9.751583099
25.38561082,-0.02873042,0.169988319,9.756371498
25.43561082,-0.021547815,0.158017308,9.749189377
25.48561082,-0.031124622,0.16759412,9.749189377
25.53561082,-0.031124622,0.162805721,9.749189377
25.58561082,-0.02873042,0.16759412,9.737217903
25.63561082,-0.031124622,0.169988319,9.758766174
25.68561082,-0.021547815,0.179565132,9.744400978
25.73561082,-0.021547815,0.169988319,9.734824181
25.78561082,-0.021547815,0.177170932,9.756371498
25.83561082,-0.019153614,0.160411507,9.739612579
25.88561082,-0.021547815,0.181959331,9.749189377
25.93561082,-0.019153614,0.169988319,9.737217903
25.98561082,-0.02873042,0.174776718,9.751583099
26.03561082,-0.026336219,0.172382519,9.742006302
26.08561082,-0.023942016,0.16759412,9.746794701
26.13561082,-0.021547815,0.179565132,9.742006302
26.18561082,-0.026336219,0.169988319,9.746794701
26.23561082,-0.026336219,0.174776718,9.749189377
26.28561082,-0.019153614,0.169988319,9.739612579
26.33561082,-0.016759412,0.177170932,9.742006302
26.38561082,-0.023942016,0.172382519,9.737217903
26.43561082,-0.026336219,0.165199921,9.744400978
26.48561082,-0.026336219,0.177170932,9.739612579
26.53561082,-0.035913024,0.162805721,9.732429504
26.58561082,-0.021547815,0.177170932,9.744400978
26.63561082,-0.026336219,0.174776718,9.737217903
26.68561082,-0.023942016,0.18435353,9.761159897
26.73561082,-0.021547815,0.160411507,9.753977776
26.78561082,-0.026336219,0.181959331,9.739612579
26.83561082,-0.016759412,0.179565132,9.744400978
26.88561082,-0.01436521,0.174776718,9.742006302
26.93561082,-0.016759412,0.174776718,9.742006302
26.98561082,-0.023942016,0.172382519,9.761159897
27.03561082,-0.031124622,0.169988319,9.732429504
27.08561082,-0.023942016,0.169988319,9.746794701
27.13561082,-0.019153614,0.174776718,9.751583099
27.18561082,-0.016759412,0.169988319,9.753977776
27.23561082,-0.026336219,0.165199921,9.742006302
27.28561082,-0.023942016,0.165199921,9.744400978
27.33561082,-0.033518825,0.177170932,9.746794701
27.38561082,-0.023942016,0.165199921,9.749189377
27.43561082,-0.023942016,0.162805721,9.739612579
27.48561082,-0.026336219,0.158017308,9.739612579
27.53561082,-0.033518825,0.172382519,9.739612579
27.58561082,-0.023942016,0.169988319,9.737217903
27.63561082,-0.016759412,0.169988319,9.749189377
27.68561082,-0.019153614,0.172382519,9.722852707
27.73561082,-0.026336219,0.177170932,9.746794701
27.78561082,-0.023942016,0.174776718,9.734824181
27.83561082,-0.019153614,0.16759412,9.749189377
27.88561082,-0.019153614,0.160411507,9.737217903
27.93561082,-0.031124622,0.169988319,9.749189377
27.98561082,-0.021547815,0.162805721,9.753977776
28.03561082,-0.023942016,0.177170932,9.746794701
28.08561082,-0.021547815,0.169988319,9.744400978
28.13561082,-0.021547815,0.165199921,9.739612579
28.18561082,-0.023942016,0.169988319,9.742006302
28.23561082,-0.021547815,0.16759412,9.744400978
28.28561082,-0.009576807,0.174776718,9.742006302
28.33561082,-0.023942016,0.165199921,9.763554573
28.38561082,-0.021547815,0.16759412,9.749189377
28.43561082,-0.023942016,0.181959331,9.756371498
28.48561082,-0.023942016,0.177170932,9.751583099
28.53561082,-0.023942016,0.174776718,9.746794701
28.58561082,-0.023942016,0.16759412,9.739612579
28.63561082,-0.019153614,0.174776718,9.749189377
28.68561082,-0.02873042,0.172382519,9.756371498
28.73561082,-0.031124622,0.179565132,9.744400978
28.78561082,-0.016759412,0.172382519,9.744400978
28.83561082,-0.023942016,0.169988319,9.744400978
28.88561082,-0.011971008,0.179565132,9.753977776
28.93561082,-0.009576807,0.177170932,9.742006302
28.98561082,-0.023942016,0.172382519,9.749189377
29.03561082,-0.019153614,0.165199921,9.744400978
29.08561082,-0.026336219,0.174776718,9.734824181
29.13561082,-0.02873042,0.169988319,9.749189377
29.18561082,-0.01436521,0.181959331,9.744400978
29.23561082,-0.01436521,0.169988319,9.739612579
29.28561082,-0.016759412,0.174776718,9.742006302
29.33561082,-0.031124622,0.169988319,9.751583099
29.38561082,-0.016759412,0.172382519,9.742006302
29.43561082,-0.031124622,0.172382519,9.746794701
29.48561082,-0.031124622,0.172382519,9.727641106
29.53561082,-0.016759412,0.181959331,9.732429504
29.58561082,-0.023942016,0.169988319,9.746794701
29.63561082,-0.011971008,0.172382519,9.746794701
29.68561082,-0.021547815,0.165199921,9.751583099
29.73561082,-0.02873042,0.165199921,9.746794701
29.78561082,-0.01436521,0.165199921,9.749189377
29.83561082,-0.026336219,0.165199921,9.744400978
29.88561082,-0.031124622,0.179565132,9.756371498
29.93561082,-0.021547815,0.174776718,9.742006302
29.98561082,-0.019153614,0.16759412,9.727641106
30.03561082,-0.023942016,0.172382519,9.753977776
30.08561082,-0.021547815,0.165199921,9.749189377
30.13561082,-0.026336219,0.172382519,9.749189377
30.18561082,-0.023942016,0.169988319,9.734824181
30.23561082,-0.023942016,0.169988319,9.734824181
30.28561082,-0.016759412,0.169988319,9.744400978
30.33561082,-0.023942016,0.16759412,9.742006302
30.38561082,-0.026336219,0.172382519,9.730035782
30.43561082,-0.026336219,0.169988319,9.739612579
30.48561082,-0.016759412,0.177170932,9.749189377
30.53561082,-0.031124622,0.177170932,9.753977776
30.58561082,-0.016759412,0.165199921,9.753977776
30.63561082,-0.023942016,0.16759412,9.746794701
30.68561082,-0.023942016,0.181959331,9.739612579
30.73561082,-0.021547815,0.179565132,9.742006302
30.78561082,-0.026336219,0.172382519,9.746794701
30.83561082,-0.02873042,0.172382519,9.734824181
30.88561082,-0.016759412,0.172382519,9.753977776
30.93561082,-0.021547815,0.172382519,9.742006302
30.98561082,-0.019153614,0.169988319,9.744400978
31.03561082,-0.021547815,0.16759412,9.746794701
31.08561082,-0.019153614,0.174776718,9.746794701
31.13561082,-0.016759412,0.172382519,9.742006302
31.18561082,-0.026336219,0.174776718,9.749189377
31.23561082,-0.021547815,0.179565132,9.737217903
31.28561082,-0.021547815,0.162805721,9.744400978
31.33561082,-0.021547815,0.158017308,9.751583099
31.38561082,-0.021547815,0.174776718,9.751583099
31.43561082,-0.02873042,0.174776718,9.744400978
31.48561082,-0.019153614,0.160411507,9.751583099
31.53561082,-0.019153614,0.165199921,9.734824181
31.58561082,-0.019153614,0.174776718,9.749189377
31.63561082,-0.023942016,0.16759412,9.744400978
31.68561082,-0.02873042,0.181959331,9.734824181
31.73561082,-0.02873042,0.172382519,9.746794701
31.78561082,-0.026336219,0.177170932,9.744400978
31.83561082,-0.01436521,0.177170932,9.744400978
31.88561082,-0.026336219,0.172382519,9.749189377
31.93561082,-0.019153614,0.172382519,9.746794701
31.98561082,-0.02873042,0.172382519,9.739612579
32.03561082,-0.019153614,0.174776718,9.734824181
32.08561082,-0.033518825,0.177170932,9.756371498
32.13561082,-0.023942016,0.18435353,9.742006302
32.18561082,-0.019153614,0.174776718,9.739612579
32.23561082,-0.019153614,0.158017308,9.737217903
32.28561082,-0.02873042,0.16759412,9.746794701
32.33561082,-0.023942016,0.165199921,9.742006302
32.38561082,-0.021547815,0.181959331,9.734824181
32.43561082,-0.02873042,0.165199921,9.744400978
32.48561082,-0.019153614,0.165199921,9.737217903
32.53561082,-0.021547815,0.174776718,9.753977776
32.58561082,-0.026336219,0.169988319,9.753977776
32.63561082,-0.031124622,0.174776718,9.746794701
32.68561082,-0.035913024,0.16759412,9.746794701
32.73561082,-0.023942016,0.172382519,9.749189377
32.78561082,-0.023942016,0.169988319,9.746794701
32.83561082,-0.031124622,0.172382519,9.739612579
32.88561082,-0.026336219,0.172382519,9.746794701
32.93561082,-0.023942016,0.169988319,9.744400978
32.98561082,-0.02873042,0.169988319,9.749189377
33.03561082,-0.019153614,0.162805721,9.751583099
33.08561082,-0.026336219,0.169988319,9.744400978
33.13561082,-0.04070143,0.169988319,9.739612579
33.18561082,-0.02873042,0.174776718,9.742006302
33.23561082,-0.019153614,0.172382519,9.746794701
33.28561082,-0.019153614,0.162805721,9.744400978
33.33561082,-0.023942016,0.172382519,9.753977776
33.38561082,-0.023942016,0.179565132,9.749189377
33.43561082,-0.01436521,0.165199921,9.742006302
33.48561082,-0.031124622,0.177170932,9.739612579
33.53561082,-0.01436521,0.177170932,9.734824181
33.58561082,-0.021547815,0.165199921,9.751583099
33.63561082,-0.026336219,0.177170932,9.751583099
33.68561082,-0.023942016,0.177170932,9.730035782
33.73561082,-0.031124622,0.177170932,9.744400978
33.78561082,-0.016759412,0.169988319,9.746794701
33.83561082,-0.021547815,0.169988319,9.744400978
33.88561082,-0.026336219,0.165199921,9.749189377
33.93561082,-0.021547815,0.158017308,9.742006302
33.98561082,-0.019153614,0.174776718,9.732429504
34.03561082,-0.019153614,0.172382519,9.758766174
34.08561082,-0.023942016,0.172382519,9.756371498
34.13561082,-0.026336219,0.162805721,9.732429504
34.18561082,-0.021547815,0.174776718,9.737217903
34.23561082,-0.035913024,0.177170932,9.749189377
34.28561082,-0.019153614,0.169988319,9.739612579
34.33561082,-0.021547815,0.16759412,9.746794701
34.38561082,-0.026336219,0.174776718,9.744400978
34.43561082,-0.026336219,0.172382519,9.739612579
34.48561082,-0.016759412,0.179565132,9.737217903
34.53561082,-0.021547815,0.172382519,9.739612579
34.58561082,-0.02873042,0.179565132,9.734824181
34.63561082,-0.031124622,0.169988319,9.739612579
34.68561082,-0.021547815,0.172382519,9.742006302
34.73561082,-0.02873042,0.169988319,9.753977776
34.78561082,-0.02873042,0.158017308,9.742006302
34.83561082,-0.019153614,0.16759412,9.737217903
34.88561082,-0.023942016,0.172382519,9.768342972
34.93561082,-0.02873042,0.177170932,9.737217903
34.98561082,-0.016759412,0.162805721,9.725247383
35.03561082,-0.016759412,0.191536129,9.737217903
35.08561082,-0.02873042,0.174776718,9.739612579
35.13561082,-0.019153614,0.174776718,9.756371498
35.18561082,-0.023942016,0.162805721,9.749189377
35.23561082,-0.019153614,0.172382519,9.746794701
35.28561082,-0.016759412,0.177170932,9.742006302
35.33561082,-0.026336219,0.165199921,9.746794701
35.38561082,-0.033518825,0.174776718,9.742006302
35.43561082,-0.023942016,0.177170932,9.753977776
35.48561082,-0.02873042,0.16759412,9.737217903
35.53561082,-0.026336219,0.172382519,9.744400978
35.58561082,-0.026336219,0.16759412,9.739612579
35.63561082,-0.016759412,0.189141929,9.730035782
35.68561082,-0.023942016,0.165199921,9.753977776
35.73561082,-0.023942016,0.169988319,9.751583099
35.78561082,-0.021547815,0.169988319,9.725247383
35.83561082,-0.021547815,0.181959331,9.739612579
35.88561082,-0.02873042,0.16759412,9.732429504
35.93561082,-0.031124622,0.177170932,9.751583099
35.98561082,-0.023942016,0.16759412,9.753977776
36.03561082,-0.026336219,0.172382519,9.744400978
36.08561082,-0.019153614,0.172382519,9.742006302
36.13561082,-0.023942016,0.169988319,9.756371498
36.18561082,-0.026336219,0.169988319,9.732429504
36.23561082,-0.021547815,0.169988319,9.751583099
36.28561082,-0.019153614,0.169988319,9.734824181
36.33561082,-0.01436521,0.162805721,9.744400978
36.38561082,-0.021547815,0.179565132,9.753977776
36.43561082,-0.026336219,0.165199921,9.746794701
36.48561082,-0.026336219,0.172382519,9.734824181
36.53561082,-0.02873042,0.172382519,9.746794701
36.58561082,-0.019153614,0.172382519,9.749189377
36.63561082,-0.02873042,0.16759412,9.756371498
36.68561082,-0.021547815,0.165199921,9.744400978
36.73561082,-0.016759412,0.169988319,9.746794701
36.78561082,-0.019153614,0.169988319,9.744400978
36.83561082,-0.023942016,0.169988319,9.727641106
36.88561082,-0.021547815,0.18435353,9.744400978
36.93561082,-0.023942016,0.18435353,9.742006302
36.98561082,-0.02873042,0.174776718,9.753977776
37.03561082,-0.01436521,0.16759412,9.722852707
37.08561082,-0.016759412,0.177170932,9.749189377
37.13561082,-0.01436521,0.162805721,9.751583099
37.18561082,-0.019153614,0.172382519,9.737217903
37.23561082,-0.019153614,0.158017308,9.746794701
37.28561082,-0.026336219,0.169988319,9.739612579
37.33561082,-0.016759412,0.174776718,9.744400978
37.38561082,-0.023942016,0.172382519,9.725247383
37.43561082,-0.021547815,0.169988319,9.749189377
37.48561082,-0.011971008,0.165199921,9.739612579
37.53561082,-0.026336219,0.16759412,9.753977776
37.58561082,-0.026336219,0.162805721,9.742006302
37.63561082,-0.026336219,0.174776718,9.744400978
37.68561082,-0.016759412,0.181959331,9.737217903
37.73561082,-0.031124622,0.169988319,9.746794701
37.78561082,-0.021547815,0.177170932,9.742006302
37.83561082,-0.019153614,0.16759412,9.746794701
37.88561082,-0.021547815,0.177170932,9.737217903
37.93561082,-0.023942016,0.181959331,9.739612579
37.98561082,-0.016759412,0.179565132,9.742006302
38.03561082,-0.021547815,0.172382519,9.732429504
38.08561082,-0.021547815,0.169988319,9.742006302
38.13561082,-0.01436521,0.174776718,9.739612579
38.18561082,-0.023942016,0.172382519,9.727641106
38.23561082,-0.019153614,0.174776718,9.758766174
38.28561082,-0.023942016,0.16759412,9.739612579
38.33561082,-0.016759412,0.177170932,9.739612579
38.38561082,-0.033518825,0.165199921,9.746794701
38.43561082,-0.011971008,0.172382519,9.722852707
38.48561082,-0.02873042,0.155623108,9.734824181
38.53561082,-0.02873042,0.179565132,9.739612579
38.58561082,-0.023942016,0.177170932,9.737217903
38.63561082,-0.026336219,0.169988319,9.742006302
38.68561082,-0.033518825,0.174776718,9.732429504
38.73561082,-0.026336219,0.18435353,9.742006302
38.78561082,-0.033518825,0.165199921,9.744400978
38.83561082,-0.026336219,0.169988319,9.737217903
38.88561082,-0.021547815,0.169988319,9.734824181
38.93561082,-0.023942016,0.174776718,9.744400978
38.98561082,-0.033518825,0.174776718,9.749189377
39.03561082,-0.023942016,0.169988319,9.732429504
39.08561082,-0.026336219,0.16759412,9.751583099
39.13561082,-0.033518825,0.169988319,9.749189377
39.18561082,-0.019153614,0.16759412,9.739612579
39.23561082,-0.023942016,0.174776718,9.746794701
39.28561082,-0.021547815,0.174776718,9.730035782
39.33561082,-0.023942016,0.172382519,9.749189377
39.38561082,-0.023942016,0.16759412,9.732429504
39.43561082,-0.019153614,0.162805721,9.742006302
39.48561082,-0.021547815,0.172382519,9.737217903
39.53561082,-0.019153614,0.16759412,9.746794701
39.58561082,-0.021547815,0.165199921,9.744400978
39.63561082,-0.019153614,0.172382519,9.742006302
39.68561082,-0.023942016,0.172382519,9.751583099
39.73561082,-0.023942016,0.16759412,9.734824181
39.78561082,-0.019153614,0.172382519,9.749189377
39.83561082,-0.021547815,0.165199921,9.739612579
39.88561082,-0.021547815,0.169988319,9.753977776
39.93561082,-0.035913024,0.172382519,9.746794701
39.98561082,-0.031124622,0.174776718,9.742006302
40.03561082,-0.033518825,0.162805721,9.753977776
40.08561082,-0.031124622,0.177170932,9.742006302
40.13561082,-0.031124622,0.179565132,9.753977776
40.18561082,-0.026336219,0.160411507,9.725247383
40.23561082,-0.023942016,0.16759412,9.739612579
40.28561082,-0.019153614,0.172382519,9.734824181
40.33561082,-0.026336219,0.179565132,9.730035782
40.38561082,-0.026336219,0.169988319,9.751583099
40.43561082,-0.023942016,0.177170932,9.751583099
40.48561082,-0.019153614,0.16759412,9.749189377
40.53561082,-0.021547815,0.179565132,9.737217903
40.58561082,-0.023942016,0.179565132,9.756371498
40.63561082,-0.031124622,0.172382519,9.746794701
40.68561082,-0.021547815,0.174776718,9.744400978
40.73561082,-0.019153614,0.172382519,9.742006302
40.78561082,-0.02873042,0.16759412,9.749189377
40.83561082,-0.016759412,0.165199921,9.742006302
40.88561082,-0.031124622,0.16759412,9.751583099
40.93561082,-0.031124622,0.162805721,9.749189377
40.98561082,-0.033518825,0.169988319,9.739612579
41.03561082,-0.031124622,0.177170932,9.744400978
41.08561082,-0.02873042,0.179565132,9.751583099
41.13561082,-0.01436521,0.16759412,9.732429504
41.18561082,-0.026336219,0.160411507,9.737217903
41.23561082,-0.021547815,0.177170932,9.746794701
41.28561082,-0.023942016,0.169988319,9.737217903
41.33561082,-0.026336219,0.16759412,9.742006302
41.38561082,-0.019153614,0.181959331,9.742006302
41.43561082,-0.021547815,0.172382519,9.732429504
41.48561082,-0.023942016,0.162805721,9.746794701
41.53561082,-0.021547815,0.172382519,9.742006302
41.58561082,-0.026336219,0.174776718,9.744400978
41.63561082,-0.026336219,0.160411507,9.732429504
41.68561082,-0.023942016,0.179565132,9.758766174
41.73561082,-0.026336219,0.179565132,9.742006302
41.78561082,-0.019153614,0.162805721,9.734824181
41.83561082,-0.016759412,0.174776718,9.739612579
41.88561082,-0.019153614,0.165199921,9.739612579
41.93561082,-0.009576807,0.16759412,9.753977776
41.98561082,-0.019153614,0.177170932,9.737217903
42.03561082,-0.026336219,0.16759412,9.739612579
42.08561082,-0.023942016,0.177170932,9.749189377
42.13561082,-0.019153614,0.172382519,9.739612579
42.18561082,-0.038307227,0.179565132,9.742006302
42.23561082,-0.021547815,0.169988319,9.742006302
42.28561082,-0.031124622,0.172382519,9.744400978
42.33561082,-0.021547815,0.174776718,9.737217903
42.38561082,-0.019153614,0.169988319,9.749189377
42.43561082,-0.021547815,0.18435353,9.758766174
42.48561082,-0.023942016,0.165199921,9.737217903
42.53561082,-0.021547815,0.179565132,9.744400978
42.58561082,-0.02873042,0.165199921,9.753977776
42.63561082,-0.016759412,0.174776718,9.749189377
42.68561082,-0.016759412,0.174776718,9.749189377
42.73561082,-0.023942016,0.16759412,9.758766174
42.78561082,-0.023942016,0.169988319,9.739612579
42.83561082,-0.01436521,0.179565132,9.749189377
42.88561082,-0.011971008,0.179565132,9.749189377
42.93561082,-0.021547815,0.172382519,9.746794701
42.98561082,-0.031124622,0.18435353,9.749189377
43.03561082,-0.023942016,0.165199921,9.751583099
43.08561082,-0.026336219,0.169988319,9.742006302
43.13561082,-0.021547815,0.169988319,9.742006302
43.18561082,-0.019153614,0.172382519,9.737217903
43.23561082,-0.021547815,0.16759412,9.749189377
43.28561082,-0.023942016,0.172382519,9.742006302
43.33561082,-0.02873042,0.165199921,9.751583099
43.38561082,-0.021547815,0.18435353,9.742006302
43.43561082,-0.019153614,0.169988319,9.744400978
43.48561082,-0.019153614,0.179565132,9.744400978
43.53561082,-0.026336219,0.165199921,9.751583099
43.58561082,-0.023942016,0.165199921,9.739612579
43.63561082,-0.016759412,0.177170932,9.742006302
43.68561082,-0.026336219,0.172382519,9.734824181
43.73561082,-0.02873042,0.16759412,9.739612579
43.78561082,-0.02873042,0.172382519,9.744400978
43.83561082,-0.021547815,0.160411507,9.739612579
43.88561082,-0.031124622,0.169988319,9.742006302
43.93561082,-0.023942016,0.189141929,9.744400978
43.98561082,-0.011971008,0.177170932,9.744400978
44.03561082,-0.031124622,0.160411507,9.744400978
44.08561082,-0.019153614,0.177170932,9.749189377
44.13561082,-0.019153614,0.169988319,9.746794701
44.18561082,-0.031124622,0.160411507,9.753977776
44.23561082,-0.016759412,0.162805721,9.744400978
44.28561082,-0.031124622,0.18674773,9.744400978
44.33561082,-0.031124622,0.162805721,9.751583099
44.38561082,-0.023942016,0.169988319,9.732429504
44.43561082,-0.033518825,0.160411507,9.737217903
44.48561082,-0.02873042,0.169988319,9.742006302
44.53561082,-0.033518825,0.16759412,9.742006302
44.58561082,-0.026336219,0.172382519,9.761159897
44.63561082,-0.02873042,0.160411507,9.746794701
44.68561082,-0.021547815,0.16759412,9.737217903
44.73561082,-0.021547815,0.16759412,9.742006302
44.78561082,-0.02873042,0.179565132,9.742006302
44.83561082,-0.02873042,0.160411507,9.746794701
44.88561082,-0.02873042,0.172382519,9.761159897
44.93561082,-0.016759412,0.172382519,9.734824181
44.98561082,-0.04070143,0.177170932,9.742006302
45.03561082,-0.02873042,0.158017308,9.742006302
45.08561082,-0.021547815,0.169988319,9.737217903
45.13561082,-0.019153614,0.174776718,9.753977776
45.18561082,-0.019153614,0.181959331,9.761159897
45.23561082,-0.031124622,0.162805721,9.737217903
45.28561082,-0.023942016,0.174776718,9.749189377
45.33561082,-0.026336219,0.174776718,9.744400978
45.38561082,-0.033518825,0.169988319,9.744400978
45.43561082,-0.021547815,0.16759412,9.742006302
45.48561082,-0.026336219,0.165199921,9.751583099
45.53561082,-0.023942016,0.16759412,9.753977776
45.58561082,-0.023942016,0.174776718,9.758766174
45.63561082,-0.021547815,0.174776718,9.749189377
45.68561082,-0.023942016,0.16759412,9.753977776
45.73561082,-0.023942016,0.165199921,9.751583099
45.78561082,-0.026336219,0.162805721,9.751583099
45.83561082,-0.026336219,0.179565132,9.744400978
45.88561082,-0.023942016,0.177170932,9.758766174
45.93561082,-0.023942016,0.162805721,9.751583099
45.98561082,-0.033518825,0.174776718,9.746794701
46.03561082,-0.02873042,0.165199921,9.730035782
46.08561082,-0.023942016,0.169988319,9.737217903
46.13561082,-0.021547815,0.172382519,9.744400978
46.18561082,-0.021547815,0.153228909,9.746794701
46.23561082,-0.016759412,0.160411507,9.742006302
46.28561082,-0.016759412,0.181959331,9.734824181
46.33561082,-0.02873042,0.155623108,9.756371498
46.38561082,-0.02873042,0.174776718,9.737217903
46.43561082,-0.026336219,0.174776718,9.746794701
46.48561082,-0.021547815,0.177170932,9.746794701
46.53561082,-0.033518825,0.174776718,9.746794701
46.58561082,-0.026336219,0.174776718,9.749189377
46.63561082,-0.021547815,0.189141929,9.751583099
46.68561082,-0.026336219,0.169988319,9.737217903
46.73561082,-0.023942016,0.172382519,9.746794701
46.78561082,-0.016759412,0.174776718,9.753977776
46.83561082,-0.019153614,0.162805721,9.756371498
46.88561082,-0.023942016,0.16759412,9.737217903
46.93561082,-0.021547815,0.169988319,9.749189377
46.98561082,-0.02873042,0.174776718,9.746794701
47.03561082,-0.02873042,0.172382519,9.746794701
47.08561082,-0.026336219,0.172382519,9.742006302
47.13561082,-0.021547815,0.174776718,9.742006302
47.18561082,-0.02873042,0.174776718,9.742006302
47.23561082,-0.021547815,0.177170932,9.744400978
47.28561082,-0.021547815,0.179565132,9.749189377
47.33561082,-0.023942016,0.172382519,9.739612579
47.38561082,-0.023942016,0.162805721,9.742006302
47.43561082,-0.02873042,0.181959331,9.739612579
47.48561082,-0.021547815,0.181959331,9.746794701
47.53561082,-0.016759412,0.177170932,9.746794701
47.58561082,-0.016759412,0.177170932,9.730035782
47.63561082,-0.033518825,0.165199921,9.742006302
47.68561082,-0.031124622,0.177170932,9.756371498
47.73561082,-0.011971008,0.174776718,9.734824181
47.78561082,-0.021547815,0.169988319,9.737217903
47.83561082,-0.026336219,0.172382519,9.744400978
47.88561082,-0.021547815,0.162805721,9.730035782
47.93561082,-0.016759412,0.169988319,9.758766174
47.98561082,-0.023942016,0.177170932,9.751583099
48.03561082,-0.02873042,0.174776718,9.739612579
48.08561082,-0.026336219,0.172382519,9.739612579
48.13561082,-0.01436521,0.165199921,9.746794701
48.18561082,-0.023942016,0.177170932,9.746794701
48.23561082,-0.011971008,0.18674773,9.749189377
48.28561082,-0.02873042,0.177170932,9.753977776
48.33561082,-0.02873042,0.169988319,9.751583099
48.38561082,-0.019153614,0.16759412,9.739612579
48.43561082,-0.021547815,0.174776718,9.734824181
48.48561082,-0.023942016,0.172382519,9.730035782
48.53561082,-0.023942016,0.169988319,9.751583099
48.58561082,-0.023942016,0.172382519,9.739612579
48.63561082,-0.021547815,0.16759412,9.742006302
48.68561082,-0.023942016,0.16759412,9.734824181
48.73561082,-0.023942016,0.181959331,9.742006302
48.78561082,-0.023942016,0.16759412,9.742006302
48.83561082,-0.021547815,0.181959331,9.727641106
48.88561082,-0.016759412,0.165199921,9.734824181
48.93561082,-0.019153614,0.179565132,9.737217903
48.98561082,-0.021547815,0.169988319,9.739612579
49.03561082,-0.016759412,0.16759412,9.751583099
49.08561082,-0.023942016,0.181959331,9.749189377
49.13561082,-0.026336219,0.16759412,9.753977776
49.18561082,-0.019153614,0.172382519,9.749189377
49.23561082,-0.021547815,0.165199921,9.732429504
49.28561082,-0.01436521,0.177170932,9.737217903
49.33561082,-0.01436521,0.174776718,9.739612579
49.38561082,-0.02873042,0.16759412,9.756371498
49.43561082,-0.023942016,0.162805721,9.734824181
49.48561082,-0.021547815,0.16759412,9.732429504
49.53561082,-0.023942016,0.169988319,9.739612579
49.58561082,-0.01436521,0.169988319,9.756371498
49.63561082,-0.033518825,0.165199921,9.739612579
49.68561082,-0.007182605,0.160411507,9.734824181
49.73561082,-0.023942016,0.169988319,9.737217903
49.78561082,-0.026336219,0.158017308,9.749189377
49.83561082,-0.023942016,0.162805721,9.744400978
49.88561082,-0.021547815,0.160411507,9.734824181
49.93561082,-0.019153614,0.177170932,9.746794701
49.98561082,-0.026336219,0.169988319,9.742006302
50.03561082,-0.026336219,0.179565132,9.737217903
50.08561082,-0.009576807,0.177170932,9.744400978
50.13561082,-0.026336219,0.172382519,9.744400978
50.18561082,-0.019153614,0.169988319,9.742006302
50.23561082,-0.023942016,0.18435353,9.746794701
50.28561082,-0.016759412,0.174776718,9.749189377
50.33561082,-0.01436521,0.177170932,9.732429504
50.38561082,-0.023942016,0.155623108,9.732429504
50.43561082,-0.02873042,0.169988319,9.742006302
50.48561082,-0.023942016,0.16759412,9.742006302
50.53561082,-0.023942016,0.169988319,9.742006302
50.58561082,-0.01436521,0.169988319,9.746794701
50.63561082,-0.023942016,0.177170932,9.734824181
50.68561082,-0.011971008,0.16759412,9.749189377
50.73561082,-0.023942016,0.172382519,9.753977776
50.78561082,-0.026336219,0.160411507,9.737217903
50.83561082,-0.026336219,0.165199921,9.739612579
50.88561082,-0.021547815,0.172382519,9.734824181
50.93561082,-0.023942016,0.177170932,9.734824181
50.98561082,-0.023942016,0.169988319,9.742006302
51.03561082,-0.019153614,0.174776718,9.739612579
51.08561082,-0.026336219,0.16759412,9.730035782
51.13561082,-0.023942016,0.169988319,9.744400978
51.18561082,-0.019153614,0.169988319,9.730035782
51.23561082,-0.023942016,0.177170932,9.732429504
51.28561082,-0.023942016,0.16759412,9.746794701
51.33561082,-0.021547815,0.169988319,9.742006302
51.38561082,-0.019153614,0.181959331,9.746794701
51.43561082,-0.023942016,0.172382519,9.734824181
51.48561082,-0.033518825,0.160411507,9.739612579
51.53561082,-0.021547815,0.174776718,9.732429504
51.58561082,-0.019153614,0.172382519,9.732429504
51.63561082,-0.026336219,0.16759412,9.742006302
51.68561082,-0.021547815,0.169988319,9.727641106
51.73561082,-0.026336219,0.179565132,9.739612579
51.78561082,-0.021547815,0.16759412,9.737217903
51.83561082,-0.023942016,0.174776718,9.746794701
51.88561082,-0.026336219,0.169988319,9.732429504
51.93561082,-0.019153614,0.177170932,9.742006302
51.98561082,-0.021547815,0.162805721,9.749189377
52.03561082,-0.035913024,0.172382519,9.753977776
52.08561082,-0.021547815,0.162805721,9.749189377
52.13561082,-0.021547815,0.169988319,9.739612579
52.18561082,-0.021547815,0.16759412,9.746794701
52.23561082,-0.01436521,0.174776718,9.758766174
52.28561082,-0.019153614,0.169988319,9.732429504
52.33561082,-0.019153614,0.174776718,9.737217903
52.38561082,-0.026336219,0.169988319,9.734824181
52.43561082,-0.026336219,0.172382519,9.739612579
52.48561082,-0.026336219,0.177170932,9.739612579
52.53561082,-0.019153614,0.169988319,9.746794701
52.58561082,-0.023942016,0.189141929,9.753977776
52.63561082,-0.021547815,0.181959331,9.749189377
52.68561082,-0.021547815,0.169988319,9.737217903
52.73561082,-0.016759412,0.16759412,9.758766174
52.78561082,-0.023942016,0.165199921,9.742006302
52.83561082,-0.026336219,0.172382519,9.734824181
52.88561082,-0.01436521,0.174776718,9.737217903
52.93561082,-0.02873042,0.169988319,9.742006302
52.98561082,-0.026336219,0.172382519,9.732429504
53.03561082,-0.026336219,0.18435353,9.737217903
53.08561082,-0.021547815,0.172382519,9.744400978
53.13561082,-0.02873042,0.169988319,9.730035782
53.18561082,-0.023942016,0.181959331,9.756371498
53.23561082,-0.023942016,0.172382519,9.749189377
53.28561082,-0.021547815,0.172382519,9.746794701
53.33561082,-0.026336219,0.172382519,9.737217903
53.38561082,-0.026336219,0.16759412,9.742006302
53.43561082,-0.021547815,0.162805721,9.730035782
53.48561082,-0.023942016,0.172382519,9.739612579
53.53561082,-0.021547815,0.162805721,9.737217903
53.58561082,-0.02873042,0.162805721,9.737217903
53.63561082,-0.023942016,0.169988319,9.739612579
53.68561082,-0.01436521,0.179565132,9.756371498
53.73561082,-0.031124622,0.165199921,9.734824181
53.78561082,-0.026336219,0.16759412,9.734824181
53.83561082,-0.021547815,0.172382519,9.739612579
53.88561082,-0.016759412,0.177170932,9.742006302
53.93561082,-0.019153614,0.174776718,9.742006302
53.98561082,-0.016759412,0.169988319,9.744400978
54.03561082,-0.026336219,0.172382519,9.749189377
54.08561082,-0.031124622,0.160411507,9.756371498
54.13561082,-0.026336219,0.177170932,9.744400978
54.18561082,-0.016759412,0.181959331,9.737217903
54.23561082,-0.021547815,0.165199921,9.730035782
54.28561082,-0.019153614,0.18435353,9.737217903
54.33561082,-0.026336219,0.169988319,9.737217903
54.38561082,-0.021547815,0.16759412,9.739612579
54.43561082,-0.023942016,0.18435353,9.744400978
54.48561082,-0.021547815,0.179565132,9.742006302
54.53561082,-0.023942016,0.172382519,9.758766174
54.58561082,-0.019153614,0.162805721,9.751583099
54.63561082,-0.019153614,0.174776718,9.746794701
54.68561082,-0.01436521,0.172382519,9.739612579
54.73561082,-0.019153614,0.169988319,9.751583099
54.78561082,-0.023942016,0.16759412,9.734824181
54.83561082,-0.026336219,0.169988319,9.742006302
54.88561082,-0.016759412,0.172382519,9.753977776
54.93561082,-0.026336219,0.165199921,9.742006302
54.98561082,-0.016759412,0.177170932,9.746794701
55.03561082,-0.02873042,0.177170932,9.737217903
55.08561082,-0.026336219,0.169988319,9.734824181
55.13561082,-0.019153614,0.172382519,9.744400978
55.18561082,-0.023942016,0.169988319,9.742006302
55.23561082,-0.026336219,0.162805721,9.730035782
55.28561082,-0.023942016,0.18435353,9.744400978
55.33561082,-0.026336219,0.158017308,9.742006302
55.38561082,-0.033518825,0.162805721,9.739612579
55.43561082,-0.023942016,0.174776718,9.744400978
55.48561082,-0.007182605,0.169988319,9.746794701
55.53561082,-0.023942016,0.165199921,9.737217903
55.58561082,-0.019153614,0.172382519,9.751583099
55.63561082,-0.019153614,0.172382519,9.746794701
55.68561082,-0.019153614,0.172382519,9.756371498
55.73561082,-0.01436521,0.174776718,9.739612579
55.78561082,-0.023942016,0.174776718,9.744400978
55.83561082,-0.023942016,0.16759412,9.744400978
55.88561082,-0.023942016,0.160411507,9.742006302
55.93561082,-0.02873042,0.165199921,9.734824181
55.98561082,-0.01436521,0.179565132,9.758766174
56.03561082,-0.02873042,0.174776718,9.746794701
56.08561082,-0.026336219,0.162805721,9.739612579
56.13561082,-0.026336219,0.177170932,9.732429504
56.18561082,-0.023942016,0.177170932,9.753977776
56.23561082,-0.021547815,0.177170932,9.753977776
56.28561082,-0.021547815,0.179565132,9.734824181
56.33561082,-0.026336219,0.162805721,9.746794701
56.38561082,-0.011971008,0.169988319,9.746794701
56.43561082,-0.021547815,0.16759412,9.751583099
56.48561082,-0.031124622,0.16759412,9.744400978
56.53561082,-0.021547815,0.179565132,9.737217903
56.58561082,-0.016759412,0.18674773,9.749189377
56.63561082,-0.026336219,0.169988319,9.742006302
56.68561082,-0.031124622,0.174776718,9.746794701
56.73561082,-0.023942016,0.169988319,9.749189377
56.78561082,-0.031124622,0.177170932,9.746794701
56.83561082,-0.01436521,0.160411507,9.742006302
56.88561082,-0.021547815,0.169988319,9.751583099
56.93561082,-0.023942016,0.169988319,9.737217903
56.98561082,-0.023942016,0.16759412,9.739612579
57.03561082,-0.023942016,0.177170932,9.744400978
57.08561082,-0.019153614,0.174776718,9.742006302
57.13561082,-0.031124622,0.169988319,9.749189377
57.18561082,-0.019153614,0.177170932,9.742006302
57.23561082,-0.038307227,0.172382519,9.739612579
57.28561082,-0.023942016,0.165199921,9.737217903
57.33561082,-0.021547815,0.177170932,9.749189377
57.38561082,-0.016759412,0.177170932,9.746794701
57.43561082,-0.016759412,0.172382519,9.734824181
57.48561082,-0.026336219,0.165199921,9.749189377
57.53561082,-0.019153614,0.169988319,9.744400978
57.58561082,-0.023942016,0.172382519,9.742006302
57.63561082,-0.033518825,0.169988319,9.746794701
57.68561082,-0.019153614,0.162805721,9.744400978
57.73561082,-0.031124622,0.165199921,9.732429504
57.78561082,-0.02873042,0.162805721,9.744400978
57.83561082,-0.021547815,0.172382519,9.742006302
57.88561082,-0.019153614,0.169988319,9.751583099
57.93561082,-0.026336219,0.162805721,9.744400978
57.98561082,-0.026336219,0.174776718,9.734824181
58.03561082,-0.026336219,0.169988319,9.722852707
58.08561082,-0.021547815,0.169988319,9.739612579
58.13561082,-0.031124622,0.16759412,9.739612579
58.18561082,-0.021547815,0.165199921,9.732429504
58.23561082,-0.023942016,0.169988319,9.753977776
58.28561082,-0.016759412,0.165199921,9.751583099
58.33561082,-0.019153614,0.174776718,9.756371498
58.38561082,-0.019153614,0.172382519,9.742006302
58.43561082,-0.023942016,0.174776718,9.742006302
58.48561082,-0.021547815,0.16759412,9.737217903
58.53561082,-0.01436521,0.174776718,9.739612579
58.58561082,-0.019153614,0.172382519,9.746794701
58.63561082,-0.023942016,0.165199921,9.746794701
58.68561082,-0.026336219,0.174776718,9.739612579
58.73561082,-0.026336219,0.165199921,9.744400978
58.78561082,-0.021547815,0.162805721,9.744400978
58.83561082,-0.023942016,0.172382519,9.730035782
58.88561082,-0.031124622,0.174776718,9.746794701
58.93561082,-0.023942016,0.169988319,9.742006302
58.98561082,-0.031124622,0.16759412,9.742006302
59.03561082,-0.016759412,0.174776718,9.734824181
59.08561082,-0.021547815,0.162805721,9.746794701
59.13561082,-0.023942016,0.16759412,9.739612579
59.18561082,-0.019153614,0.172382519,9.746794701
59.23561082,-0.026336219,0.169988319,9.749189377
59.28561082,-0.023942016,0.165199921,9.737217903
59.33561082,-0.019153614,0.174776718,9.749189377
59.38561082,-0.021547815,0.169988319,9.737217903
59.43561082,-0.02873042,0.162805721,9.753977776
59.48561082,-0.026336219,0.179565132,9.751583099
59.53561082,-0.02873042,0.172382519,9.734824181
59.58561082,-0.033518825,0.172382519,9.739612579
59.63561082,-0.021547815,0.174776718,9.744400978
59.68561082,-0.02873042,0.174776718,9.739612579
59.73561082,-0.021547815,0.16759412,9.761159897
59.78561082,-0.021547815,0.169988319,9.734824181
59.83561082,-0.026336219,0.16759412,9.722852707
59.88561082,-0.019153614,0.162805721,9.742006302
59.93561082,-0.02873042,0.16759412,9.749189377
59.98561082,-0.023942016,0.174776718,9.746794701
60.03561082,-0.021547815,0.172382519,9.739612579
60.08561082,-0.023942016,0.172382519,9.737217903
60.13561082,-0.019153614,0.16759412,9.739612579
60.18561082,-0.02873042,0.165199921,9.744400978
60.23561082,-0.016759412,0.181959331,9.734824181
60.28561082,-0.02873042,0.169988319,9.730035782
60.33561082,-0.021547815,0.169988319,9.744400978
60.38561082,-0.023942016,0.16759412,9.744400978
60.43561082,-0.026336219,0.172382519,9.730035782
60.48561082,-0.02873042,0.16759412,9.739612579
60.53561082,-0.021547815,0.165199921,9.756371498
60.58561082,-0.011971008,0.172382519,9.751583099
60.63561082,-0.019153614,0.16759412,9.737217903
60.68561082,-0.023942016,0.174776718,9.746794701
60.73561082,-0.023942016,0.169988319,9.749189377
60.78561082,-0.019153614,0.165199921,9.742006302
60.83561082,-0.016759412,0.169988319,9.746794701
60.88561082,-0.02873042,0.165199921,9.742006302
60.93561082,-0.023942016,0.165199921,9.742006302
60.98561082,-0.026336219,0.174776718,9.749189377
61.03561082,-0.026336219,0.165199921,9.739612579
61.08561082,-0.033518825,0.177170932,9.734824181
61.13561082,-0.023942016,0.172382519,9.742006302
61.18561082,-0.019153614,0.169988319,9.732429504
61.23561082,-0.026336219,0.172382519,9.734824181
61.28561082,-0.016759412,0.181959331,9.739612579
61.33561082,-0.026336219,0.160411507,9.737217903
61.38561082,-0.023942016,0.16759412,9.749189377
61.43561082,-0.033518825,0.174776718,9.739612579
61.48561082,-0.021547815,0.16759412,9.746794701
61.53561082,-0.026336219,0.165199921,9.749189377
61.58561082,-0.011971008,0.174776718,9.732429504
61.63561082,-0.021547815,0.162805721,9.742006302
61.68561082,-0.031124622,0.172382519,9.742006302
61.73561082,-0.019153614,0.16759412,9.742006302
61.78561082,-0.016759412,0.165199921,9.730035782
61.83561082,-0.016759412,0.172382519,9.756371498
61.88561082,-0.026336219,0.162805721,9.742006302
61.93561082,-0.026336219,0.174776718,9.744400978
61.98561082,-0.031124622,0.16759412,9.742006302
62.03561082,-0.021547815,0.172382519,9.749189377
62.08561082,-0.035913024,0.16759412,9.739612579
62.13561082,-0.021547815,0.174776718,9.737217903
62.18561082,-0.031124622,0.165199921,9.742006302
62.23561082,-0.026336219,0.177170932,9.744400978
62.28561082,-0.021547815,0.165199921,9.749189377
62.33561082,-0.031124622,0.162805721,9.744400978
62.38561082,-0.031124622,0.174776718,9.744400978
62.43561082,-0.01436521,0.177170932,9.739612579
62.48561082,-0.035913024,0.169988319,9.746794701
62.53561082,-0.016759412,0.179565132,9.734824181
62.58561082,-0.02873042,0.172382519,9.734824181
62.63561082,-0.016759412,0.172382519,9.744400978
62.68561082,-0.019153614,0.172382519,9.744400978
62.73561082,-0.026336219,0.16759412,9.753977776
62.78561082,-0.021547815,0.169988319,9.753977776
62.83561082,-0.023942016,0.174776718,9.751583099
62.88561082,-0.021547815,0.162805721,9.734824181
62.93561082,-0.019153614,0.16759412,9.753977776
62.98561082,-0.019153614,0.160411507,9.765948296
63.03561082,-0.02873042,0.165199921,9.737217903
63.08561082,-0.02873042,0.169988319,9.749189377
63.13561082,-0.023942016,0.18435353,9.744400978
63.18561082,-0.016759412,0.16759412,9.744400978
63.23561082,-0.035913024,0.165199921,9.734824181
63.28561082,-0.026336219,0.18435353,9.742006302
63.33561082,-0.019153614,0.174776718,9.746794701
63.38561082,-0.023942016,0.177170932,9.727641106
63.43561082,-0.016759412,0.165199921,9.746794701
63.48561082,-0.026336219,0.174776718,9.744400978
63.53561082,-0.021547815,0.169988319,9.737217903
63.58561082,-0.026336219,0.16759412,9.732429504
63.63561082,-0.031124622,0.181959331,9.727641106
63.68561082,-0.02873042,0.165199921,9.744400978
63.73561082,-0.026336219,0.169988319,9.734824181
63.78561082,-0.026336219,0.16759412,9.749189377
63.83561082,-0.023942016,0.169988319,9.744400978
63.88561082,-0.031124622,0.172382519,9.746794701
63.93561082,-0.02873042,0.177170932,9.751583099
63.98561082,-0.023942016,0.16759412,9.761159897
64.03561082,-0.023942016,0.174776718,9.742006302
64.08561082,-0.023942016,0.169988319,9.746794701
64.13561082,-0.016759412,0.177170932,9.730035782
64.18561082,-0.016759412,0.16759412,9.746794701
64.23561082,-0.033518825,0.179565132,9.744400978
64.28561082,-0.021547815,0.18435353,9.732429504
64.33561082,-0.031124622,0.16759412,9.742006302
64.38561082,-0.023942016,0.174776718,9.749189377
64.43561082,-0.021547815,0.172382519,9.737217903
64.48561082,-0.023942016,0.174776718,9.746794701
64.53561082,-0.019153614,0.172382519,9.744400978
64.58561082,-0.019153614,0.177170932,9.753977776
64.63561082,-0.016759412,0.177170932,9.746794701
64.68561082,-0.021547815,0.172382519,9.734824181
64.73561082,-0.016759412,0.174776718,9.753977776
64.78561082,-0.021547815,0.162805721,9.753977776
64.83561082,-0.023942016,0.160411507,9.758766174
64.88561082,-0.021547815,0.174776718,9.749189377
64.93561082,-0.021547815,0.162805721,9.737217903
64.98561082,-0.011971008,0.174776718,9.746794701
65.03561082,-0.023942016,0.160411507,9.744400978
65.08561082,-0.026336219,0.172382519,9.737217903
65.13561082,-0.026336219,0.177170932,9.765948296
65.18561082,-0.023942016,0.174776718,9.746794701
65.23561082,-0.021547815,0.172382519,9.749189377
65.28561082,-0.026336219,0.16759412,9.768342972
65.33561082,-0.02873042,0.169988319,9.727641106
65.38561082,-0.026336219,0.16759412,9.739612579
65.43561082,-0.019153614,0.155623108,9.749189377
65.48561082,-0.021547815,0.16759412,9.744400978
65.53561082,-0.019153614,0.174776718,9.727641106
65.58561082,-0.023942016,0.165199921,9.737217903
65.63561082,-0.01436521,0.16759412,9.746794701
65.68561082,-0.023942016,0.169988319,9.751583099
65.73561082,-0.026336219,0.169988319,9.753977776
65.78561082,-0.023942016,0.162805721,9.732429504
65.83561082,-0.021547815,0.172382519,9.744400978
65.88561082,-0.02873042,0.169988319,9.737217903
65.93561082,-0.026336219,0.162805721,9.746794701
65.98561082,-0.021547815,0.177170932,9.744400978
66.03561082,-0.031124622,0.172382519,9.744400978
66.08561082,-0.026336219,0.172382519,9.746794701
66.13561082,-0.026336219,0.16759412,9.727641106
66.18561082,-0.011971008,0.165199921,9.746794701
66.23561082,-0.016759412,0.16759412,9.746794701
66.28561082,-0.01436521,0.172382519,9.749189377
66.33561082,-0.016759412,0.172382519,9.744400978
66.38561082,-0.031124622,0.179565132,9.751583099
66.43561082,-0.016759412,0.169988319,9.746794701
66.48561082,-0.026336219,0.169988319,9.756371498
66.53561082,-0.021547815,0.18435353,9.739612579
66.58561082,-0.019153614,0.169988319,9.739612579
66.63561082,-0.019153614,0.179565132,9.737217903
66.68561082,-0.026336219,0.174776718,9.739612579
66.73561082,-0.023942016,0.169988319,9.746794701
66.78561082,-0.021547815,0.16759412,9.753977776
66.83561082,-0.026336219,0.172382519,9.737217903
66.88561082,-0.019153614,0.169988319,9.751583099
66.93561082,-0.016759412,0.158017308,9.737217903
66.98561082,-0.026336219,0.172382519,9.749189377
67.03561082,-0.016759412,0.172382519,9.742006302
67.08561082,-0.031124622,0.172382519,9.739612579
67.13561082,-0.02873042,0.172382519,9.751583099
67.18561082,-0.02873042,0.172382519,9.737217903
67.23561082,-0.016759412,0.169988319,9.753977776
67.28561082,-0.031124622,0.162805721,9.744400978
67.33561082,-0.01436521,0.162805721,9.758766174
67.38561082,-0.016759412,0.174776718,9.739612579
67.43561082,-0.021547815,0.174776718,9.746794701
67.48561082,-0.023942016,0.174776718,9.746794701
67.53561082,-0.035913024,0.179565132,9.744400978
67.58561082,-0.026336219,0.177170932,9.739612579
67.63561082,-0.02873042,0.172382519,9.734824181
67.68561082,-0.023942016,0.169988319,9.753977776
67.73561082,-0.01436521,0.16759412,9.753977776
67.78561082,-0.019153614,0.177170932,9.732429504
67.83561082,-0.023942016,0.172382519,9.739612579
67.88561082,-0.01436521,0.172382519,9.744400978
67.93561082,-0.02873042,0.162805721,9.753977776
67.98561082,-0.023942016,0.172382519,9.744400978
68.03561082,-0.023942016,0.177170932,9.756371498
68.08561082,-0.021547815,0.160411507,9.737217903
68.13561082,-0.016759412,0.174776718,9.742006302
68.18561082,-0.026336219,0.179565132,9.751583099
68.23561082,-0.016759412,0.177170932,9.753977776
68.28561082,-0.021547815,0.174776718,9.732429504
68.33561082,-0.026336219,0.165199921,9.756371498
68.38561082,-0.021547815,0.172382519,9.742006302
68.43561082,-0.026336219,0.160411507,9.749189377
68.48561082,-0.031124622,0.169988319,9.744400978
68.53561082,-0.023942016,0.165199921,9.746794701
68.58561082,-0.031124622,0.177170932,9.744400978
68.63561082,-0.016759412,0.177170932,9.739612579
68.68561082,-0.033518825,0.177170932,9.739612579
68.73561082,-0.026336219,0.177170932,9.751583099
68.78561082,-0.04070143,0.162805721,9.753977776
68.83561082,-0.023942016,0.172382519,9.744400978
68.88561082,-0.021547815,0.169988319,9.756371498
68.93561082,-0.035913024,0.16759412,9.739612579
68.98561082,-0.02873042,0.177170932,9.739612579
69.03561082,-0.031124622,0.172382519,9.744400978
69.08561082,-0.021547815,0.169988319,9.742006302
69.13561082,-0.019153614,0.165199921,9.739612579
69.18561082,-0.02873042,0.169988319,9.746794701
69.23561082,-0.031124622,0.172382519,9.749189377
69.28561082,-0.031124622,0.174776718,9.744400978
69.33561082,-0.023942016,0.179565132,9.749189377
69.38561082,-0.026336219,0.165199921,9.739612579
69.43561082,-0.031124622,0.179565132,9.739612579
69.48561082,-0.023942016,0.162805721,9.737217903
69.53561082,-0.016759412,0.169988319,9.746794701
69.58561082,-0.021547815,0.177170932,9.742006302
69.63561082,-0.026336219,0.169988319,9.742006302
69.68561082,-0.023942016,0.16759412,9.756371498
69.73561082,-0.026336219,0.158017308,9.758766174
69.78561082,-0.01436521,0.179565132,9.758766174
69.83561082,-0.023942016,0.174776718,9.746794701
69.88561082,-0.02873042,0.160411507,9.744400978
69.93561082,-0.019153614,0.172382519,9.744400978
69.98561082,-0.023942016,0.16759412,9.737217903
70.03561082,-0.023942016,0.172382519,9.746794701
70.08561082,-0.016759412,0.169988319,9.744400978
70.13561082,-0.01436521,0.162805721,9.739612579
70.18561082,-0.021547815,0.165199921,9.744400978
70.23561082,-0.031124622,0.169988319,9.732429504
70.28561082,-0.021547815,0.169988319,9.739612579
70.33561082,-0.009576807,0.169988319,9.753977776
70.38561082,-0.016759412,0.16759412,9.737217903
70.43561082,-0.026336219,0.177170932,9.744400978
70.48561082,-0.009576807,0.160411507,9.744400978
70.53561082,-0.016759412,0.172382519,9.746794701
70.58561082,-0.031124622,0.169988319,9.746794701
70.63561082,-0.038307227,0.177170932,9.744400978
70.68561082,-0.026336219,0.174776718,9.749189377
70.73561082,-0.023942016,0.160411507,9.742006302
70.78561082,-0.021547815,0.16759412,9.746794701
70.83561082,-0.023942016,0.16759412,9.742006302
70.88561082,-0.016759412,0.16759412,9.749189377
70.93561082,-0.02873042,0.177170932,9.742006302
70.98561082,-0.026336219,0.16759412,9.751583099
71.03561082,-0.021547815,0.153228909,9.737217903
71.08561082,-0.031124622,0.177170932,9.749189377
71.13561082,-0.021547815,0.160411507,9.737217903
71.18561082,-0.026336219,0.169988319,9.746794701
71.23561082,-0.02873042,0.179565132,9.746794701
71.28561082,-0.019153614,0.169988319,9.753977776
71.33561082,-0.019153614,0.174776718,9.739612579
71.38561082,-0.016759412,0.165199921,9.737217903
71.43561082,-0.021547815,0.172382519,9.746794701
71.48561082,-0.021547815,0.169988319,9.749189377
71.53561082,-0.031124622,0.160411507,9.746794701
71.58561082,-0.026336219,0.162805721,9.746794701
71.63561082,-0.026336219,0.16759412,9.751583099
71.68561082,-0.016759412,0.16759412,9.744400978
71.73561082,-0.026336219,0.172382519,9.758766174
71.78561082,-0.023942016,0.174776718,9.746794701
71.83561082,-0.016759412,0.179565132,9.744400978
71.88561082,-0.031124622,0.169988319,9.753977776
71.93561082,-0.016759412,0.179565132,9.749189377
71.98561082,-0.01436521,0.162805721,9.727641106
72.03561082,-0.023942016,0.165199921,9.742006302
72.08561082,-0.01436521,0.169988319,9.749189377
72.13561082,-0.01436521,0.172382519,9.742006302
72.18561082,-0.016759412,0.177170932,9.744400978
72.23561082,-0.021547815,0.179565132,9.751583099
72.28561082,-0.019153614,0.177170932,9.744400978
72.33561082,-0.026336219,0.165199921,9.744400978
72.38561082,-0.023942016,0.172382519,9.739612579
72.43561082,-0.019153614,0.172382519,9.734824181
72.48561082,-0.026336219,0.16759412,9.744400978
72.53561082,-0.026336219,0.160411507,9.751583099
72.58561082,-0.026336219,0.177170932,9.758766174
72.63561082,-0.021547815,0.174776718,9.744400978
72.68561082,-0.031124622,0.16759412,9.744400978
72.73561082,-0.021547815,0.169988319,9.739612579
72.78561082,-0.019153614,0.172382519,9.734824181
72.83561082,-0.021547815,0.16759412,9.734824181
72.88561082,-0.02873042,0.177170932,9.744400978
72.93561082,-0.01436521,0.179565132,9.739612579
72.98561082,-0.021547815,0.177170932,9.749189377
73.03561082,-0.033518825,0.169988319,9.739612579
73.08561082,-0.016759412,0.177170932,9.739612579
73.13561082,-0.019153614,0.172382519,9.725247383
73.18561082,-0.016759412,0.179565132,9.742006302
73.23561082,-0.026336219,0.169988319,9.739612579
73.28561082,-0.026336219,0.179565132,9.742006302
73.33561082,-0.019153614,0.160411507,9.751583099
73.38561082,-0.019153614,0.174776718,9.746794701
73.43561082,-0.019153614,0.155623108,9.753977776
73.48561082,-0.023942016,0.165199921,9.749189377
73.53561082,-0.011971008,0.165199921,9.749189377
73.58561082,-0.031124622,0.174776718,9.746794701
73.63561082,-0.026336219,0.172382519,9.739612579
73.68561082,-0.021547815,0.16759412,9.737217903
73.73561082,-0.021547815,0.169988319,9.739612579
73.78561082,-0.01436521,0.162805721,9.742006302
73.83561082,-0.023942016,0.16759412,9.756371498
73.88561082,-0.019153614,0.16759412,9.739612579
73.93561082,-0.011971008,0.162805721,9.746794701
73.98561082,-0.023942016,0.169988319,9.746794701
74.03561082,-0.019153614,0.172382519,9.737217903
74.08561082,-0.023942016,0.16759412,9.756371498
74.13561082,-0.023942016,0.169988319,9.749189377
74.18561082,-0.026336219,0.177170932,9.751583099
74.23561082,-0.021547815,0.179565132,9.744400978
74.28561082,-0.019153614,0.174776718,9.746794701
74.33561082,-0.026336219,0.177170932,9.734824181
74.38561082,-0.019153614,0.172382519,9.742006302
74.43561082,-0.026336219,0.177170932,9.749189377
74.48561082,-0.023942016,0.162805721,9.734824181
74.53561082,-0.031124622,0.162805721,9.751583099
74.58561082,-0.019153614,0.177170932,9.742006302
74.63561082,-0.02873042,0.169988319,9.739612579
74.68561082,-0.023942016,0.177170932,9.753977776
74.73561082,-0.023942016,0.18435353,9.744400978
74.78561082,-0.02873042,0.172382519,9.734824181
74.83561082,-0.019153614,0.169988319,9.751583099
74.88561082,-0.023942016,0.160411507,9.744400978
74.93561082,-0.026336219,0.189141929,9.739612579
74.98561082,-0.026336219,0.179565132,9.739612579
75.03561082,-0.021547815,0.162805721,9.734824181
75.08561082,-0.021547815,0.177170932,9.744400978
75.13561082,-0.021547815,0.16759412,9.746794701
75.18561082,-0.02873042,0.169988319,9.746794701
75.23561082,-0.023942016,0.16759412,9.749189377
75.28561082,-0.02873042,0.172382519,9.730035782
75.33561082,-0.026336219,0.181959331,9.746794701
75.38561082,-0.023942016,0.172382519,9.737217903
75.43561082,-0.019153614,0.165199921,9.746794701
75.48561082,-0.02873042,0.165199921,9.753977776
75.53561082,-0.023942016,0.169988319,9.739612579
75.58561082,-0.021547815,0.174776718,9.746794701
75.63561082,-0.023942016,0.174776718,9.746794701
75.68561082,-0.023942016,0.172382519,9.725247383
75.73561082,-0.01436521,0.172382519,9.737217903
75.78561082,-0.021547815,0.169988319,9.737217903
75.83561082,-0.035913024,0.179565132,9.739612579
75.88561082,-0.033518825,0.169988319,9.749189377
75.93561082,-0.026336219,0.174776718,9.739612579
75.98561082,-0.019153614,0.169988319,9.749189377
76.03561082,-0.023942016,0.181959331,9.744400978
76.08561082,-0.016759412,0.169988319,9.742006302
76.13561082,-0.021547815,0.158017308,9.753977776
76.18561082,-0.023942016,0.16759412,9.739612579
76.23561082,-0.035913024,0.174776718,9.744400978
76.28561082,-0.023942016,0.169988319,9.756371498
76.33561082,-0.021547815,0.16759412,9.746794701
76.38561082,-0.016759412,0.172382519,9.744400978
76.43561082,-0.023942016,0.177170932,9.746794701
76.48561082,-0.019153614,0.169988319,9.732429504
76.53561082,-0.02873042,0.177170932,9.734824181
76.58561082,-0.016759412,0.179565132,9.749189377
76.63561082,-0.01436521,0.172382519,9.742006302
76.68561082,-0.016759412,0.177170932,9.734824181
76.73561082,-0.026336219,0.172382519,9.749189377
76.78561082,-0.016759412,0.162805721,9.749189377
76.83561082,-0.019153614,0.169988319,9.746794701
76.88561082,-0.023942016,0.174776718,9.742006302
76.93561082,-0.026336219,0.172382519,9.746794701
76.98561082,-0.021547815,0.16759412,9.742006302
77.03561082,-0.026336219,0.169988319,9.751583099
77.08561082,-0.023942016,0.16759412,9.746794701
77.13561082,-0.02873042,0.172382519,9.739612579
77.18561082,-0.021547815,0.165199921,9.734824181
77.23561082,-0.016759412,0.165199921,9.749189377
77.28561082,-0.026336219,0.16759412,9.749189377
77.33561082,-0.016759412,0.179565132,9.742006302
77.38561082,-0.023942016,0.177170932,9.742006302
77.43561082,-0.023942016,0.172382519,9.742006302
77.48561082,-0.023942016,0.172382519,9.744400978
77.53561082,-0.016759412,0.174776718,9.742006302
77.58561082,-0.02873042,0.169988319,9.739612579
77.63561082,-0.019153614,0.172382519,9.742006302
77.68561082,-0.023942016,0.191536129,9.744400978
77.73561082,-0.021547815,0.165199921,9.749189377
77.78561082,-0.021547815,0.165199921,9.749189377
77.83561082,-0.021547815,0.169988319,9.742006302
77.88561082,-0.033518825,0.174776718,9.734824181
77.93561082,-0.026336219,0.174776718,9.737217903
77.98561082,-0.031124622,0.169988319,9.749189377
78.03561082,-0.02873042,0.172382519,9.737217903
78.08561082,-0.023942016,0.169988319,9.751583099
78.13561082,-0.019153614,0.177170932,9.722852707
78.18561082,-0.031124622,0.169988319,9.753977776
78.23561082,-0.023942016,0.177170932,9.732429504
78.28561082,-0.02873042,0.165199921,9.746794701
78.33561082,-0.02873042,0.172382519,9.749189377
78.38561082,-0.026336219,0.172382519,9.746794701
78.43561082,-0.021547815,0.172382519,9.753977776
78.48561082,-0.02873042,0.172382519,9.744400978
78.53561082,-0.016759412,0.162805721,9.751583099
78.58561082,-0.02873042,0.174776718,9.739612579
78.63561082,-0.023942016,0.165199921,9.756371498
78.68561082,-0.02873042,0.16759412,9.730035782
78.73561082,-0.021547815,0.169988319,9.746794701
78.78561082,-0.021547815,0.16759412,9.732429504
78.83561082,-0.033518825,0.174776718,9.749189377
78.88561082,-0.026336219,0.160411507,9.751583099
78.93561082,-0.026336219,0.165199921,9.749189377
78.98561082,-0.026336219,0.16759412,9.742006302
79.03561082,-0.016759412,0.16759412,9.734824181
79.08561082,-0.026336219,0.169988319,9.739612579
79.13561082,-0.023942016,0.160411507,9.746794701
79.18561082,-0.026336219,0.172382519,9.742006302
79.23561082,-0.021547815,0.169988319,9.739612579
79.28561082,-0.026336219,0.169988319,9.744400978
79.33561082,-0.023942016,0.169988319,9.737217903
79.38561082,-0.021547815,0.165199921,9.742006302
79.43561082,-0.019153614,0.162805721,9.737217903
79.48561082,-0.033518825,0.165199921,9.739612579
79.53561082,-0.016759412,0.162805721,9.746794701
79.58561082,-0.021547815,0.172382519,9.746794701
79.63561082,-0.01436521,0.172382519,9.749189377
79.68561082,-0.01436521,0.165199921,9.739612579
79.73561082,-0.02873042,0.158017308,9.742006302
79.78561082,-0.016759412,0.169988319,9.746794701
79.83561082,-0.019153614,0.172382519,9.734824181
79.88561082,-0.023942016,0.174776718,9.744400978
79.93561082,-0.026336219,0.160411507,9.746794701
79.98561082,-0.031124622,0.16759412,9.746794701
80.03561082,-0.019153614,0.16759412,9.722852707
80.08561082,-0.02873042,0.181959331,9.751583099
80.13561082,-0.023942016,0.18435353,9.739612579
80.18561082,-0.023942016,0.16759412,9.746794701
80.23561082,-0.019153614,0.174776718,9.737217903
80.28561082,-0.023942016,0.16759412,9.739612579
80.33561082,-0.019153614,0.169988319,9.737217903
80.38561082,-0.023942016,0.169988319,9.734824181
80.43561082,-0.02873042,0.16759412,9.749189377
80.48561082,-0.026336219,0.162805721,9.758766174
80.53561082,-0.026336219,0.16759412,9.749189377
80.58561082,-0.031124622,0.162805721,9.739612579
80.63561082,-0.026336219,0.18435353,9.742006302
80.68561082,-0.026336219,0.162805721,9.746794701
80.73561082,-0.031124622,0.181959331,9.742006302
80.78561082,-0.026336219,0.16759412,9.749189377
80.83561082,-0.023942016,0.160411507,9.739612579
80.88561082,-0.011971008,0.172382519,9.734824181
80.93561082,-0.021547815,0.172382519,9.734824181
80.98561082,-0.019153614,0.181959331,9.751583099
81.03561082,-0.02873042,0.177170932,9.746794701
81.08561082,-0.026336219,0.174776718,9.753977776
81.13561082,-0.031124622,0.177170932,9.756371498
81.18561082,-0.033518825,0.179565132,9.753977776
81.23561082,-0.01436521,0.179565132,9.758766174
81.28561082,-0.021547815,0.165199921,9.744400978
81.33561082,-0.01436521,0.181959331,9.749189377
81.38561082,-0.023942016,0.165199921,9.737217903
81.43561082,-0.023942016,0.169988319,9.742006302
81.48561082,-0.026336219,0.158017308,9.742006302
81.53561082,-0.019153614,0.165199921,9.749189377
81.58561082,-0.02873042,0.165199921,9.742006302
81.63561082,-0.019153614,0.177170932,9.732429504
81.68561082,-0.021547815,0.179565132,9.737217903
81.73561082,-0.026336219,0.169988319,9.758766174
81.78561082,-0.021547815,0.177170932,9.742006302
81.83561082,-0.023942016,0.172382519,9.739612579
81.88561082,-0.019153614,0.172382519,9.732429504
81.93561082,-0.033518825,0.174776718,9.742006302
81.98561082,-0.023942016,0.169988319,9.751583099
82.03561082,-0.009576807,0.162805721,9.742006302
82.08561082,-0.023942016,0.16759412,9.742006302
82.13561082,-0.031124622,0.174776718,9.742006302
82.18561082,-0.035913024,0.177170932,9.746794701
82.23561082,-0.016759412,0.160411507,9.746794701
82.28561082,-0.023942016,0.16759412,9.753977776
82.33561082,-0.016759412,0.16759412,9.739612579
82.38561082,-0.021547815,0.174776718,9.744400978
82.43561082,-0.02873042,0.160411507,9.746794701
82.48561082,-0.016759412,0.174776718,9.739612579
82.53561082,-0.02873042,0.160411507,9.742006302
82.58561082,-0.021547815,0.172382519,9.746794701
82.63561082,-0.023942016,0.181959331,9.744400978
82.68561082,-0.02873042,0.16759412,9.746794701
82.73561082,-0.02873042,0.177170932,9.732429504
82.78561082,-0.023942016,0.16759412,9.744400978
82.83561082,-0.021547815,0.179565132,9.753977776
82.88561082,-0.026336219,0.177170932,9.753977776
82.93561082,-0.01436521,0.172382519,9.739612579
82.98561082,-0.023942016,0.162805721,9.749189377
83.03561082,-0.038307227,0.169988319,9.756371498
83.08561082,-0.021547815,0.174776718,9.744400978
83.13561082,-0.023942016,0.177170932,9.756371498
83.18561082,-0.04070143,0.172382519,9.746794701
83.23561082,-0.031124622,0.160411507,9.734824181
83.28561082,-0.026336219,0.169988319,9.734824181
83.33561082,-0.023942016,0.177170932,9.744400978
83.38561082,-0.019153614,0.16759412,9.737217903
83.43561082,-0.016759412,0.179565132,9.746794701
83.48561082,-0.021547815,0.172382519,9.746794701
83.53561082,-0.02873042,0.165199921,9.753977776
83.58561082,-0.019153614,0.16759412,9.756371498
83.63561082,-0.019153614,0.174776718,9.763554573
83.68561082,-0.02873042,0.174776718,9.742006302
83.73561082,-0.02873042,0.165199921,9.744400978
83.78561082,-0.021547815,0.172382519,9.739612579
83.83561082,-0.02873042,0.16759412,9.761159897
83.88561082,-0.023942016,0.172382519,9.739612579
83.93561082,-0.02873042,0.150834709,9.751583099
83.98561082,-0.019153614,0.172382519,9.751583099
84.03561082,-0.026336219,0.169988319,9.758766174
84.08561082,-0.031124622,0.169988319,9.753977776
84.13561082,-0.019153614,0.177170932,9.749189377
84.18561082,-0.031124622,0.16759412,9.765948296
84.23561082,-0.033518825,0.177170932,9.751583099
84.28561082,-0.026336219,0.169988319,9.758766174
84.33561082,-0.019153614,0.172382519,9.765948296
84.38561082,-0.016759412,0.169988319,9.742006302
84.43561082,-0.026336219,0.169988319,9.746794701
84.48561082,-0.02873042,0.172382519,9.765948296
84.53561082,-0.031124622,0.169988319,9.758766174
84.58561082,-0.021547815,0.179565132,9.742006302
84.63561082,-0.021547815,0.172382519,9.758766174
84.68561082,-0.021547815,0.169988319,9.756371498
84.73561082,-0.016759412,0.174776718,9.756371498
84.78561082,-0.026336219,0.165199921,9.746794701
84.83561082,-0.021547815,0.169988319,9.753977776
84.88561082,-0.02873042,0.165199921,9.751583099
84.93561082,-0.033518825,0.16759412,9.751583099
84.98561082,-0.016759412,0.177170932,9.756371498
85.03561082,-0.021547815,0.162805721,9.751583099
85.08561082,-0.026336219,0.172382519,9.746794701
85.13561082,-0.019153614,0.172382519,9.753977776
85.18561082,-0.016759412,0.165199921,9.746794701
85.23561082,-0.026336219,0.177170932,9.749189377
85.28561082,-0.019153614,0.179565132,9.761159897
85.33561082,-0.016759412,0.174776718,9.749189377
85.38561082,-0.026336219,0.172382519,9.758766174
85.43561082,-0.01436521,0.16759412,9.749189377
85.48561082,-0.021547815,0.169988319,9.753977776
85.53561082,-0.026336219,0.162805721,9.756371498
85.58561082,-0.01436521,0.165199921,9.753977776
85.63561082,-0.031124622,0.162805721,9.744400978
85.68561082,-0.023942016,0.177170932,9.744400978
85.73561082,-0.033518825,0.160411507,9.749189377
85.78561082,-0.019153614,0.172382519,9.753977776
85.83561082,-0.021547815,0.162805721,9.746794701
85.88561082,-0.019153614,0.172382519,9.773131371
85.93561082,-0.019153614,0.172382519,9.770736694
85.98561082,-0.023942016,0.162805721,9.763554573
86.03561082,-0.01436521,0.160411507,9.756371498
86.08561082,-0.019153614,0.172382519,9.753977776
86.13561082,-0.021547815,0.172382519,9.765948296
86.18561082,-0.026336219,0.177170932,9.746794701
86.23561082,-0.02873042,0.174776718,9.739612579
86.28561082,-0.021547815,0.16759412,9.746794701
86.33561082,-0.021547815,0.162805721,9.756371498
86.38561082,-0.026336219,0.169988319,9.753977776
86.43561082,-0.02873042,0.16759412,9.742006302
86.48561082,-0.021547815,0.160411507,9.761159897
86.53561082,-0.023942016,0.16759412,9.753977776
86.58561082,-0.016759412,0.177170932,9.737217903
86.63561082,-0.023942016,0.169988319,9.761159897
86.68561082,-0.031124622,0.172382519,9.758766174
86.73561082,-0.019153614,0.165199921,9.739612579
86.78561082,-0.033518825,0.169988319,9.758766174
86.83561082,-0.021547815,0.169988319,9.749189377
86.88561082,-0.019153614,0.16759412,9.756371498
86.93561082,-0.019153614,0.165199921,9.749189377
86.98561082,-0.016759412,0.16759412,9.737217903
87.03561082,-0.026336219,0.174776718,9.761159897
87.08561082,-0.021547815,0.179565132,9.751583099
87.13561082,-0.026336219,0.172382519,9.744400978
87.18561082,-0.021547815,0.16759412,9.758766174
87.23561082,-0.021547815,0.169988319,9.749189377
87.28561082,-0.01436521,0.174776718,9.737217903
87.33561082,-0.016759412,0.169988319,9.739612579
87.38561082,-0.031124622,0.165199921,9.744400978
87.43561082,-0.019153614,0.172382519,9.742006302
87.48561082,-0.021547815,0.162805721,9.749189377
87.53561082,-0.023942016,0.16759412,9.742006302
87.58561082,-0.026336219,0.177170932,9.737217903
87.63561082,-0.016759412,0.16759412,9.753977776
87.68561082,-0.021547815,0.16759412,9.732429504
87.73561082,-0.019153614,0.174776718,9.749189377
87.78561082,-0.019153614,0.169988319,9.734824181
87.83561082,-0.023942016,0.16759412,9.744400978
87.88561082,-0.026336219,0.177170932,9.746794701
87.93561082,-0.021547815,0.174776718,9.744400978
87.98561082,-0.019153614,0.174776718,9.734824181
88.03561082,-0.016759412,0.179565132,9.727641106
88.08561082,-0.026336219,0.174776718,9.746794701
88.13561082,-0.02873042,0.16759412,9.746794701
88.18561082,-0.031124622,0.174776718,9.734824181
88.23561082,-0.02873042,0.172382519,9.758766174
88.28561082,-0.019153614,0.16759412,9.751583099
88.33561082,-0.02873042,0.165199921,9.744400978
88.38561082,-0.023942016,0.174776718,9.753977776
88.43561082,-0.026336219,0.177170932,9.739612579
88.48561082,-0.021547815,0.162805721,9.739612579
88.53561082,-0.033518825,0.16759412,9.742006302
88.58561082,-0.021547815,0.172382519,9.744400978
88.63561082,-0.019153614,0.16759412,9.758766174
88.68561082,-0.026336219,0.16759412,9.744400978
88.73561082,-0.011971008,0.160411507,9.746794701
88.78561082,-0.023942016,0.177170932,9.751583099
88.83561082,-0.016759412,0.177170932,9.744400978
88.88561082,-0.023942016,0.174776718,9.737217903
88.93561082,-0.004788403,0.169988319,9.751583099
88.98561082,-0.031124622,0.165199921,9.732429504
89.03561082,-0.021547815,0.172382519,9.744400978
89.08561082,-0.019153614,0.165199921,9.751583099
89.13561082,-0.023942016,0.169988319,9.737217903
89.18561082,-0.026336219,0.16759412,9.734824181
89.23561082,-0.021547815,0.162805721,9.742006302
89.28561082,-0.021547815,0.169988319,9.749189377
89.33561082,-0.026336219,0.172382519,9.744400978
89.38561082,-0.019153614,0.169988319,9.739612579
89.43561082,-0.023942016,0.165199921,9.753977776
89.48561082,-0.023942016,0.165199921,9.732429504
89.53561082,-0.023942016,0.169988319,9.732429504
89.58561082,-0.02873042,0.16759412,9.732429504
89.63561082,-0.01436521,0.174776718,9.761159897
89.68561082,-0.021547815,0.162805721,9.739612579
89.73561082,-0.02873042,0.177170932,9.751583099
89.78561082,-0.031124622,0.174776718,9.732429504
89.83561082,-0.019153614,0.172382519,9.739612579
89.88561082,-0.031124622,0.160411507,9.742006302
89.93561082,-0.023942016,0.162805721,9.753977776
89.98561082,-0.031124622,0.16759412,9.749189377
90.03561082,-0.01436521,0.16759412,9.739612579
90.08561082,-0.026336219,0.169988319,9.746794701
90.13561082,-0.035913024,0.165199921,9.753977776
90.18561082,-0.016759412,0.169988319,9.749189377
90.23561082,-0.035913024,0.174776718,9.742006302
90.28561082,-0.031124622,0.160411507,9.749189377
90.33561082,-0.02873042,0.162805721,9.737217903
90.38561082,-0.019153614,0.181959331,9.734824181
90.43561082,-0.026336219,0.174776718,9.751583099
90.48561082,-0.026336219,0.172382519,9.722852707
90.53561082,-0.019153614,0.172382519,9.751583099
90.58561082,-0.016759412,0.162805721,9.742006302
90.63561082,-0.019153614,0.169988319,9.734824181
90.68561082,-0.023942016,0.16759412,9.746794701
90.73561082,-0.023942016,0.172382519,9.744400978
90.78561082,-0.021547815,0.165199921,9.749189377
90.83561082,-0.019153614,0.169988319,9.732429504
90.88561082,-0.019153614,0.169988319,9.749189377
90.93561082,-0.02873042,0.162805721,9.746794701
90.98561082,-0.02873042,0.16759412,9.737217903
91.03561082,-0.023942016,0.174776718,9.756371498
91.08561082,-0.021547815,0.162805721,9.753977776
91.13561082,-0.026336219,0.160411507,9.742006302
91.18561082,-0.016759412,0.16759412,9.742006302
91.23561082,-0.021547815,0.165199921,9.756371498
91.28561082,-0.026336219,0.172382519,9.737217903
91.33561082,-0.023942016,0.169988319,9.739612579
91.38561082,-0.031124622,0.155623108,9.742006302
91.43561082,-0.023942016,0.172382519,9.742006302
91.48561082,-0.026336219,0.165199921,9.734824181
91.53561082,-0.021547815,0.169988319,9.739612579
91.58561082,-0.021547815,0.177170932,9.753977776
91.63561082,-0.02873042,0.169988319,9.746794701
91.68561082,-0.016759412,0.172382519,9.744400978
91.73561082,-0.026336219,0.16759412,9.746794701
91.78561082,-0.016759412,0.172382519,9.744400978
91.83561082,-0.019153614,0.165199921,9.753977776
91.88561082,-0.021547815,0.169988319,9.734824181
91.93561082,-0.023942016,0.162805721,9.732429504
91.98561082,-0.026336219,0.174776718,9.758766174
92.03561082,-0.035913024,0.174776718,9.742006302
92.08561082,-0.021547815,0.169988319,9.758766174
92.13561082,-0.021547815,0.174776718,9.739612579
92.18561082,-0.033518825,0.162805721,9.732429504
92.23561082,-0.035913024,0.177170932,9.746794701
92.28561082,-0.019153614,0.179565132,9.727641106
92.33561082,-0.019153614,0.181959331,9.739612579
92.38561082,-0.021547815,0.169988319,9.746794701
92.43561082,-0.01436521,0.169988319,9.737217903
92.48561082,-0.021547815,0.16759412,9.746794701
92.53561082,-0.019153614,0.169988319,9.753977776
92.58561082,-0.021547815,0.174776718,9.746794701
92.63561082,-0.02873042,0.16759412,9.751583099
92.68561082,-0.031124622,0.169988319,9.744400978
92.73561082,-0.031124622,0.169988319,9.753977776
92.78561082,-0.01436521,0.169988319,9.734824181
92.83561082,-0.026336219,0.172382519,9.737217903
92.88561082,-0.019153614,0.169988319,9.737217903
92.93561082,-0.023942016,0.172382519,9.753977776
92.98561082,-0.016759412,0.172382519,9.751583099
93.03561082,-0.016759412,0.160411507,9.734824181
93.08561082,-0.026336219,0.165199921,9.749189377
93.13561082,-0.02873042,0.172382519,9.746794701
93.18561082,-0.023942016,0.169988319,9.751583099
93.23561082,-0.026336219,0.165199921,9.746794701
93.28561082,-0.021547815,0.174776718,9.753977776
93.33561082,-0.016759412,0.172382519,9.749189377
93.38561082,-0.026336219,0.177170932,9.742006302
93.43561082,-0.019153614,0.16759412,9.739612579
93.48561082,-0.02873042,0.172382519,9.751583099
93.53561082,-0.021547815,0.172382519,9.751583099
93.58561082,-0.026336219,0.16759412,9.751583099
93.63561082,-0.021547815,0.174776718,9.734824181
93.68561082,-0.019153614,0.16759412,9.742006302
93.73561082,-0.019153614,0.169988319,9.739612579
93.78561082,-0.019153614,0.165199921,9.751583099
93.83561082,-0.023942016,0.181959331,9.737217903
93.88561082,-0.023942016,0.16759412,9.742006302
93.93561082,-0.019153614,0.160411507,9.746794701
93.98561082,-0.019153614,0.165199921,9.744400978
94.03561082,-0.02873042,0.169988319,9.742006302
94.08561082,-0.031124622,0.169988319,9.742006302
94.13561082,-0.019153614,0.172382519,9.734824181
94.18561082,-0.016759412,0.181959331,9.742006302
94.23561082,-0.021547815,0.165199921,9.746794701
94.28561082,-0.011971008,0.165199921,9.746794701
94.33561082,-0.023942016,0.172382519,9.737217903
94.38561082,-0.021547815,0.165199921,9.742006302
94.43561082,-0.019153614,0.162805721,9.737217903
94.48561082,-0.026336219,0.172382519,9.739612579
94.53561082,-0.007182605,0.165199921,9.753977776
94.58561082,-0.019153614,0.174776718,9.739612579
94.63561082,-0.026336219,0.172382519,9.744400978
94.68561082,-0.023942016,0.174776718,9.744400978
94.73561082,-0.02873042,0.165199921,9.746794701
94.78561082,-0.023942016,0.153228909,9.742006302
94.83561082,-0.023942016,0.172382519,9.749189377
94.88561082,-0.021547815,0.169988319,9.749189377
94.93561082,-0.02873042,0.169988319,9.746794701
94.98561082,-0.011971008,0.172382519,9.753977776
95.03561082,-0.023942016,0.179565132,9.749189377
95.08561082,-0.02873042,0.165199921,9.737217903
95.13561082,-0.019153614,0.158017308,9.734824181
95.18561082,-0.019153614,0.174776718,9.739612579
95.23561082,-0.016759412,0.172382519,9.739612579
95.28561082,-0.016759412,0.16759412,9.730035782
95.33561082,-0.016759412,0.169988319,9.744400978
95.38561082,-0.023942016,0.172382519,9.753977776
95.43561082,-0.016759412,0.169988319,9.749189377
95.48561082,-0.02873042,0.174776718,9.742006302
95.53561082,-0.023942016,0.172382519,9.749189377
95.58561082,-0.02873042,0.16759412,9.739612579
95.63561082,-0.021547815,0.174776718,9.744400978
95.68561082,-0.016759412,0.172382519,9.753977776
95.73561082,-0.011971008,0.169988319,9.749189377
95.78561082,-0.02873042,0.16759412,9.753977776
95.83561082,-0.021547815,0.179565132,9.751583099
95.88561082,-0.019153614,0.169988319,9.753977776
95.93561082,-0.02873042,0.177170932,9.744400978
95.98561082,-0.021547815,0.172382519,9.737217903
96.03561082,-0.02873042,0.162805721,9.749189377
96.08561082,-0.011971008,0.174776718,9.751583099
96.13561082,-0.026336219,0.172382519,9.742006302
96.18561082,-0.031124622,0.16759412,9.749189377
96.23561082,-0.026336219,0.177170932,9.746794701
96.28561082,-0.021547815,0.172382519,9.734824181
96.33561082,-0.023942016,0.16759412,9.722852707
96.38561082,-0.023942016,0.172382519,9.739612579
96.43561082,-0.023942016,0.165199921,9.746794701
96.48561082,-0.02873042,0.169988319,9.758766174
96.53561082,-0.026336219,0.160411507,9.751583099
96.58561082,-0.019153614,0.16759412,9.739612579
96.63561082,-0.021547815,0.172382519,9.737217903
96.68561082,-0.031124622,0.172382519,9.744400978
96.73561082,-0.019153614,0.165199921,9.746794701
96.78561082,-0.026336219,0.172382519,9.749189377
96.83561082,-0.011971008,0.172382519,9.742006302
96.88561082,-0.021547815,0.162805721,9.732429504
96.93561082,-0.031124622,0.174776718,9.749189377
96.98561082,-0.01436521,0.165199921,9.737217903
97.03561082,-0.033518825,0.169988319,9.751583099
97.08561082,-0.026336219,0.16759412,9.751583099
97.13561082,-0.026336219,0.172382519,9.749189377
97.18561082,-0.031124622,0.172382519,9.753977776
97.23561082,-0.021547815,0.169988319,9.737217903
97.28561082,-0.019153614,0.181959331,9.742006302
97.33561082,-0.019153614,0.169988319,9.742006302
97.38561082,-0.023942016,0.165199921,9.756371498
97.43561082,-0.016759412,0.169988319,9.751583099
97.48561082,-0.035913024,0.165199921,9.746794701
97.53561082,-0.019153614,0.16759412,9.753977776
97.58561082,-0.01436521,0.16759412,9.751583099
97.63561082,-0.023942016,0.172382519,9.746794701
97.68561082,-0.021547815,0.162805721,9.744400978
97.73561082,-0.016759412,0.169988319,9.749189377
97.78561082,-0.021547815,0.172382519,9.744400978
97.83561082,-0.031124622,0.153228909,9.758766174
97.88561082,-0.02873042,0.172382519,9.744400978
97.93561082,-0.033518825,0.158017308,9.744400978
97.98561082,-0.019153614,0.172382519,9.746794701
98.03561082,-0.021547815,0.172382519,9.756371498
98.08561082,-0.019153614,0.174776718,9.756371498
98.13561082,-0.016759412,0.169988319,9.751583099
98.18561082,-0.026336219,0.16759412,9.742006302
98.23561082,-0.031124622,0.172382519,9.739612579
98.28561082,-0.026336219,0.177170932,9.758766174
98.33561082,-0.031124622,0.16759412,9.749189377
98.38561082,-0.026336219,0.174776718,9.742006302
98.43561082,-0.02873042,0.162805721,9.751583099
98.48561082,-0.016759412,0.169988319,9.737217903
98.53561082,-0.023942016,0.172382519,9.746794701
98.58561082,-0.023942016,0.174776718,9.758766174
98.63561082,-0.019153614,0.179565132,9.739612579
98.68561082,-0.019153614,0.165199921,9.753977776
98.73561082,-0.01436521,0.179565132,9.746794701
98.78561082,-0.026336219,0.174776718,9.749189377
98.83561082,-0.023942016,0.172382519,9.739612579
98.88561082,-0.035913024,0.172382519,9.744400978
98.93561082,-0.021547815,0.177170932,9.742006302
98.98561082,-0.02873042,0.177170932,9.744400978
99.03561082,-0.023942016,0.162805721,9.739612579
99.08561082,-0.021547815,0.169988319,9.749189377
99.13561082,-0.026336219,0.165199921,9.746794701
99.18561082,-0.016759412,0.16759412,9.749189377
99.23561082,-0.021547815,0.172382519,9.744400978
99.28561082,-0.023942016,0.169988319,9.742006302
99.33561082,-0.02873042,0.179565132,9.742006302
99.38561082,-0.019153614,0.16759412,9.749189377
99.43561082,-0.023942016,0.160411507,9.730035782
99.48561082,-0.021547815,0.160411507,9.756371498
99.53561082,-0.009576807,0.16759412,9.737217903
99.58561082,-0.019153614,0.172382519,9.753977776
99.63561082,-0.031124622,0.169988319,9.756371498
99.68561082,-0.021547815,0.181959331,9.758766174
99.73561082,-0.02873042,0.179565132,9.742006302
99.78561082,-0.023942016,0.16759412,9.732429504
99.83561082,-0.021547815,0.174776718,9.749189377
99.88561082,-0.031124622,0.174776718,9.744400978
99.93561082,-0.021547815,0.174776718,9.746794701
99.98561082,-0.023942016,0.169988319,9.739612579
100.0356108,-0.02873042,0.172382519,9.751583099
100.0856108,-0.019153614,0.179565132,9.737217903
100.1356108,-0.033518825,0.165199921,9.756371498
100.1856108,-0.021547815,0.177170932,9.758766174
100.2356108,-0.02873042,0.181959331,9.742006302
100.2856108,-0.021547815,0.16759412,9.744400978
100.3356108,-0.035913024,0.177170932,9.742006302
100.3856108,-0.023942016,0.16759412,9.739612579
100.4356108,-0.019153614,0.16759412,9.739612579
100.4856108,-0.021547815,0.172382519,9.739612579
100.5356108,-0.026336219,0.174776718,9.737217903
100.5856108,-0.01436521,0.169988319,9.737217903
100.6356108,-0.02873042,0.162805721,9.742006302
100.6856108,-0.026336219,0.174776718,9.749189377
100.7356108,-0.026336219,0.169988319,9.737217903
100.7856108,-0.019153614,0.177170932,9.749189377
100.8356108,-0.019153614,0.177170932,9.744400978
100.8856108,-0.023942016,0.179565132,9.744400978
100.9356108,-0.031124622,0.16759412,9.730035782
100.9856108,-0.021547815,0.177170932,9.739612579
101.0356108,-0.019153614,0.172382519,9.761159897
101.0856108,-0.023942016,0.177170932,9.746794701
101.1356108,-0.02873042,0.18435353,9.730035782
101.1856108,-0.033518825,0.16759412,9.744400978
101.2356108,-0.023942016,0.158017308,9.737217903
101.2856108,-0.021547815,0.172382519,9.742006302
101.3356108,-0.021547815,0.16759412,9.727641106
101.3856108,-0.02873042,0.169988319,9.742006302
101.4356108,-0.026336219,0.165199921,9.749189377
101.4856108,-0.016759412,0.179565132,9.744400978
101.5356108,-0.021547815,0.169988319,9.739612579
101.5856108,-0.019153614,0.172382519,9.732429504
101.6356108,-0.02873042,0.172382519,9.751583099
101.6856108,-0.02873042,0.165199921,9.749189377
101.7356108,-0.026336219,0.165199921,9.746794701
101.7856108,-0.026336219,0.172382519,9.737217903
101.8356108,-0.023942016,0.165199921,9.742006302
101.8856108,-0.026336219,0.172382519,9.761159897
101.9356108,-0.026336219,0.169988319,9.739612579
101.9856108,-0.023942016,0.172382519,9.734824181
102.0356108,-0.021547815,0.169988319,9.751583099
102.0856108,-0.031124622,0.165199921,9.753977776
102.1356108,-0.02873042,0.172382519,9.725247383
102.1856108,-0.023942016,0.172382519,9.737217903
102.2356108,-0.026336219,0.169988319,9.746794701
102.2856108,-0.026336219,0.160411507,9.734824181
102.3356108,-0.035913024,0.174776718,9.753977776
102.3856108,-0.033518825,0.169988319,9.732429504
102.4356108,-0.019153614,0.16759412,9.744400978
102.4856108,-0.021547815,0.177170932,9.739612579
102.5356108,-0.019153614,0.169988319,9.751583099
102.5856108,-0.02873042,0.169988319,9.739612579
102.6356108,-0.016759412,0.172382519,9.739612579
102.6856108,-0.019153614,0.172382519,9.758766174
102.7356108,-0.031124622,0.174776718,9.749189377
102.7856108,-0.026336219,0.16759412,9.744400978
102.8356108,-0.023942016,0.162805721,9.742006302
102.8856108,-0.026336219,0.172382519,9.751583099
102.9356108,-0.019153614,0.162805721,9.756371498
102.9856108,-0.026336219,0.16759412,9.751583099
103.0356108,-0.031124622,0.165199921,9.725247383
103.0856108,-0.038307227,0.174776718,9.746794701
103.1356108,-0.021547815,0.172382519,9.749189377
103.1856108,-0.026336219,0.177170932,9.730035782
103.2356108,-0.035913024,0.174776718,9.737217903
103.2856108,-0.019153614,0.179565132,9.744400978
103.3356108,-0.031124622,0.177170932,9.744400978
103.3856108,-0.026336219,0.174776718,9.753977776
103.4356108,-0.026336219,0.172382519,9.739612579
103.4856108,-0.01436521,0.174776718,9.749189377
103.5356108,-0.016759412,0.177170932,9.746794701
103.5856108,-0.023942016,0.172382519,9.753977776
103.6356108,-0.026336219,0.179565132,9.737217903
103.6856108,-0.02873042,0.174776718,9.751583099
103.7356108,-0.023942016,0.162805721,9.744400978
103.7856108,-0.026336219,0.162805721,9.739612579
103.8356108,-0.021547815,0.174776718,9.749189377
103.8856108,-0.031124622,0.162805721,9.749189377
103.9356108,-0.023942016,0.169988319,9.746794701
103.9856108,-0.031124622,0.177170932,9.749189377
104.0356108,-0.023942016,0.169988319,9.742006302
104.0856108,-0.02873042,0.158017308,9.744400978
104.1356108,-0.026336219,0.162805721,9.742006302
104.1856108,-0.023942016,0.179565132,9.751583099
104.2356108,-0.026336219,0.162805721,9.742006302
104.2856108,-0.021547815,0.169988319,9.744400978
104.3356108,-0.02873042,0.172382519,9.749189377
104.3856108,-0.023942016,0.172382519,9.753977776
104.4356108,-0.023942016,0.165199921,9.749189377
104.4856108,-0.023942016,0.177170932,9.742006302
104.5356108,-0.035913024,0.16759412,9.746794701
104.5856108,-0.021547815,0.162805721,9.753977776
104.6356108,-0.021547815,0.16759412,9.742006302
104.6856108,-0.026336219,0.177170932,9.744400978
104.7356108,-0.019153614,0.16759412,9.730035782
104.7856108,-0.031124622,0.160411507,9.744400978
104.8356108,-0.021547815,0.162805721,9.742006302
104.8856108,-0.023942016,0.174776718,9.749189377
104.9356108,-0.02873042,0.162805721,9.742006302
104.9856108,-0.016759412,0.16759412,9.751583099
105.0356108,-0.031124622,0.16759412,9.751583099
105.0856108,-0.007182605,0.18674773,9.746794701
105.1356108,-0.023942016,0.169988319,9.744400978
105.1856108,-0.019153614,0.174776718,9.739612579
105.2356108,-0.021547815,0.153228909,9.725247383
105.2856108,-0.026336219,0.172382519,9.753977776
105.3356108,-0.026336219,0.169988319,9.749189377
105.3856108,-0.016759412,0.177170932,9.739612579
105.4356108,-0.016759412,0.174776718,9.742006302
105.4856108,-0.023942016,0.16759412,9.737217903
105.5356108,-0.02873042,0.16759412,9.746794701
105.5856108,-0.026336219,0.169988319,9.732429504
105.6356108,-0.023942016,0.16759412,9.756371498
105.6856108,-0.02873042,0.16759412,9.756371498
105.7356108,-0.021547815,0.169988319,9.737217903
105.7856108,-0.021547815,0.165199921,9.749189377
105.8356108,-0.021547815,0.169988319,9.749189377
105.8856108,-0.023942016,0.174776718,9.742006302
105.9356108,-0.016759412,0.16759412,9.737217903
105.9856108,-0.02873042,0.169988319,9.744400978
106.0356108,-0.026336219,0.16759412,9.749189377
106.0856108,-0.021547815,0.172382519,9.744400978
106.1356108,-0.033518825,0.162805721,9.751583099
106.1856108,-0.023942016,0.169988319,9.744400978
106.2356108,-0.021547815,0.177170932,9.749189377
106.2856108,-0.026336219,0.169988319,9.732429504
106.3356108,-0.016759412,0.162805721,9.749189377
106.3856108,-0.023942016,0.169988319,9.739612579
106.4356108,-0.007182605,0.162805721,9.746794701
106.4856108,-0.02873042,0.165199921,9.751583099
106.5356108,-0.023942016,0.160411507,9.734824181
106.5856108,-0.019153614,0.16759412,9.744400978
106.6356108,-0.026336219,0.162805721,9.746794701
106.6856108,-0.023942016,0.16759412,9.758766174
106.7356108,-0.021547815,0.162805721,9.746794701
106.7856108,-0.026336219,0.16759412,9.744400978
106.8356108,-0.021547815,0.162805721,9.737217903
106.8856108,-0.026336219,0.169988319,9.739612579
106.9356108,-0.019153614,0.165199921,9.725247383
106.9856108,-0.019153614,0.169988319,9.749189377
107.0356108,-0.019153614,0.169988319,9.753977776
107.0856108,-0.026336219,0.172382519,9.744400978
107.1356108,-0.031124622,0.16759412,9.742006302
107.1856108,-0.02873042,0.169988319,9.749189377
107.2356108,-0.026336219,0.177170932,9.756371498
107.2856108,-0.026336219,0.160411507,9.737217903
107.3356108,-0.011971008,0.174776718,9.746794701
107.3856108,-0.031124622,0.165199921,9.742006302
107.4356108,-0.023942016,0.179565132,9.744400978
107.4856108,-0.026336219,0.16759412,9.744400978
107.5356108,-0.023942016,0.18435353,9.734824181
107.5856108,-0.019153614,0.169988319,9.742006302
107.6356108,-0.031124622,0.177170932,9.734824181
107.6856108,-0.026336219,0.165199921,9.749189377
107.7356108,-0.02873042,0.18674773,9.751583099
107.7856108,-0.011971008,0.177170932,9.742006302
107.8356108,-0.026336219,0.179565132,9.746794701
107.8856108,-0.026336219,0.172382519,9.751583099
107.9356108,-0.019153614,0.172382519,9.737217903
107.9856108,-0.02873042,0.160411507,9.756371498
108.0356108,-0.016759412,0.158017308,9.744400978
108.0856108,-0.026336219,0.18435353,9.742006302
108.1356108,-0.02873042,0.16759412,9.742006302
108.1856108,-0.023942016,0.16759412,9.739612579
108.2356108,-0.033518825,0.172382519,9.751583099
108.2856108,-0.021547815,0.172382519,9.749189377
108.3356108,-0.023942016,0.165199921,9.737217903
108.3856108,-0.019153614,0.169988319,9.742006302
108.4356108,-0.023942016,0.162805721,9.753977776
108.4856108,-0.023942016,0.174776718,9.742006302
108.5356108,-0.01436521,0.169988319,9.758766174
108.5856108,-0.016759412,0.16759412,9.739612579
108.6356108,-0.02873042,0.172382519,9.746794701
108.6856108,-0.01436521,0.172382519,9.751583099
108.7356108,-0.02873042,0.177170932,9.744400978
108.7856108,-0.023942016,0.158017308,9.753977776
108.8356108,-0.02873042,0.169988319,9.744400978
108.8856108,-0.016759412,0.162805721,9.746794701
108.9356108,-0.016759412,0.16759412,9.744400978
108.9856108,-0.019153614,0.169988319,9.746794701
109.0356108,-0.023942016,0.16759412,9.744400978
109.0856108,-0.023942016,0.179565132,9.737217903
109.1356108,-0.026336219,0.172382519,9.742006302
109.1856108,-0.01436521,0.177170932,9.737217903
109.2356108,-0.023942016,0.160411507,9.758766174
109.2856108,-0.023942016,0.16759412,9.751583099
109.3356108,-0.021547815,0.172382519,9.742006302
109.3856108,-0.02873042,0.16759412,9.742006302
109.4356108,-0.023942016,0.16759412,9.758766174
109.4856108,-0.021547815,0.162805721,9.732429504
109.5356108,-0.026336219,0.177170932,9.732429504
109.5856108,-0.026336219,0.160411507,9.744400978
109.6356108,-0.026336219,0.160411507,9.739612579
109.6856108,-0.026336219,0.162805721,9.739612579
109.7356108,-0.021547815,0.169988319,9.744400978
109.7856108,-0.033518825,0.169988319,9.742006302
109.8356108,-0.011971008,0.174776718,9.746794701
109.8856108,-0.023942016,0.16759412,9.749189377
109.9356108,-0.021547815,0.162805721,9.737217903
109.9856108,-0.026336219,0.177170932,9.746794701
110.0356108,-0.02873042,0.165199921,9.742006302
110.0856108,-0.02873042,0.174776718,9.742006302
110.1356108,-0.016759412,0.172382519,9.746794701
110.1856108,-0.01436521,0.165199921,9.746794701
110.2356108,-0.019153614,0.174776718,9.751583099
110.2856108,-0.01436521,0.16759412,9.751583099
110.3356108,-0.023942016,0.169988319,9.751583099
110.3856108,-0.016759412,0.165199921,9.751583099
110.4356108,-0.026336219,0.169988319,9.746794701
110.4856108,-0.031124622,0.165199921,9.737217903
110.5356108,-0.023942016,0.169988319,9.742006302
110.5856108,-0.026336219,0.174776718,9.739612579
110.6356108,-0.02873042,0.172382519,9.749189377
110.6856108,-0.021547815,0.162805721,9.737217903
110.7356108,-0.02873042,0.162805721,9.749189377
110.7856108,-0.02873042,0.165199921,9.746794701
110.8356108,-0.023942016,0.174776718,9.744400978
110.8856108,-0.026336219,0.16759412,9.751583099
110.9356108,-0.023942016,0.179565132,9.739612579
110.9856108,-0.019153614,0.162805721,9.751583099
111.0356108,-0.02873042,0.172382519,9.751583099
111.0856108,-0.021547815,0.165199921,9.739612579
111.1356108,-0.033518825,0.172382519,9.746794701
111.1856108,-0.026336219,0.174776718,9.742006302
111.2356108,-0.021547815,0.179565132,9.739612579
111.2856108,-0.023942016,0.165199921,9.749189377
111.3356108,-0.016759412,0.16759412,9.753977776
111.3856108,-0.023942016,0.162805721,9.758766174
111.4356108,-0.023942016,0.16759412,9.742006302
111.4856108,-0.021547815,0.16759412,9.742006302
111.5356108,-0.021547815,0.169988319,9.753977776
111.5856108,-0.021547815,0.16759412,9.761159897
111.6356108,-0.021547815,0.174776718,9.753977776
111.6856108,-0.021547815,0.165199921,9.744400978
111.7356108,-0.021547815,0.179565132,9.744400978
111.7856108,-0.023942016,0.172382519,9.737217903
111.8356108,-0.019153614,0.174776718,9.742006302
111.8856108,-0.021547815,0.16759412,9.761159897
111.9356108,-0.023942016,0.162805721,9.749189377
111.9856108,-0.026336219,0.158017308,9.751583099
112.0356108,-0.033518825,0.16759412,9.737217903
112.0856108,-0.021547815,0.172382519,9.746794701
112.1356108,-0.02873042,0.172382519,9.746794701
112.1856108,-0.019153614,0.174776718,9.753977776
112.2356108,-0.033518825,0.172382519,9.730035782
112.2856108,-0.019153614,0.172382519,9.744400978
112.3356108,-0.009576807,0.16759412,9.749189377
112.3856108,-0.023942016,0.16759412,9.749189377
112.4356108,-0.023942016,0.16759412,9.746794701
112.4856108,-0.026336219,0.16759412,9.734824181
112.5356108,-0.031124622,0.162805721,9.742006302
112.5856108,-0.023942016,0.162805721,9.751583099
112.6356108,-0.021547815,0.177170932,9.739612579
112.6856108,-0.02873042,0.179565132,9.737217903
112.7356108,-0.026336219,0.18674773,9.751583099
112.7856108,-0.019153614,0.158017308,9.753977776
112.8356108,-0.023942016,0.179565132,9.751583099
112.8856108,-0.02873042,0.177170932,9.746794701
112.9356108,-0.019153614,0.165199921,9.749189377
112.9856108,-0.021547815,0.172382519,9.749189377
113.0356108,-0.023942016,0.165199921,9.751583099
113.0856108,-0.026336219,0.165199921,9.746794701
113.1356108,-0.02873042,0.169988319,9.749189377
113.1856108,-0.01436521,0.179565132,9.749189377
113.2356108,-0.02873042,0.174776718,9.734824181
113.2856108,-0.02873042,0.169988319,9.732429504
113.3356108,-0.023942016,0.162805721,9.751583099
113.3856108,-0.026336219,0.165199921,9.739612579
113.4356108,-0.021547815,0.177170932,9.746794701
113.4856108,-0.01436521,0.172382519,9.727641106
113.5356108,-0.026336219,0.177170932,9.749189377
113.5856108,-0.019153614,0.177170932,9.746794701
113.6356108,-0.02873042,0.172382519,9.758766174
113.6856108,-0.026336219,0.18435353,9.734824181
113.7356108,-0.019153614,0.162805721,9.744400978
113.7856108,-0.026336219,0.169988319,9.739612579
113.8356108,-0.023942016,0.177170932,9.751583099
113.8856108,-0.023942016,0.172382519,9.734824181
113.9356108,-0.021547815,0.16759412,9.744400978
113.9856108,-0.031124622,0.177170932,9.742006302
114.0356108,-0.02873042,0.169988319,9.742006302
114.0856108,-0.035913024,0.16759412,9.744400978
114.1356108,-0.023942016,0.169988319,9.737217903
114.1856108,-0.023942016,0.172382519,9.742006302
114.2356108,-0.02873042,0.169988319,9.734824181
114.2856108,-0.019153614,0.165199921,9.744400978
114.3356108,-0.023942016,0.174776718,9.734824181
114.3856108,-0.016759412,0.172382519,9.737217903
114.4356108,-0.019153614,0.162805721,9.742006302
114.4856108,-0.01436521,0.169988319,9.746794701
114.5356108,-0.02873042,0.165199921,9.732429504
114.5856108,-0.016759412,0.172382519,9.742006302
114.6356108,-0.019153614,0.165199921,9.742006302
114.6856108,-0.031124622,0.165199921,9.749189377
114.7356108,-0.026336219,0.16759412,9.737217903
114.7856108,-0.021547815,0.160411507,9.737217903
114.8356108,-0.016759412,0.169988319,9.725247383
114.8856108,-0.033518825,0.16759412,9.756371498
114.9356108,-0.026336219,0.172382519,9.744400978
114.9856108,-0.031124622,0.177170932,9.739612579
115.0356108,-0.01436521,0.16759412,9.751583099
115.0856108,-0.023942016,0.165199921,9.746794701
115.1356108,-0.019153614,0.174776718,9.739612579
115.1856108,-0.021547815,0.174776718,9.742006302
115.2356108,-0.023942016,0.158017308,9.746794701
115.2856108,-0.026336219,0.18435353,9.742006302
115.3356108,-0.021547815,0.172382519,9.732429504
115.3856108,-0.019153614,0.179565132,9.739612579
115.4356108,-0.016759412,0.169988319,9.737217903
115.4856108,-0.026336219,0.172382519,9.744400978
115.5356108,-0.021547815,0.162805721,9.737217903
115.5856108,-0.023942016,0.169988319,9.730035782
115.6356108,-0.021547815,0.172382519,9.742006302
115.6856108,-0.02873042,0.177170932,9.756371498
115.7356108,-0.026336219,0.172382519,9.749189377
115.7856108,-0.02873042,0.169988319,9.751583099
115.8356108,-0.023942016,0.18435353,9.732429504
115.8856108,-0.021547815,0.158017308,9.746794701
115.9356108,-0.009576807,0.165199921,9.749189377
115.9856108,-0.016759412,0.172382519,9.751583099
116.0356108,-0.016759412,0.172382519,9.749189377
116.0856108,-0.01436521,0.172382519,9.749189377
116.1356108,-0.023942016,0.177170932,9.734824181
116.1856108,-0.016759412,0.165199921,9.742006302
116.2356108,-0.02873042,0.162805721,9.739612579
116.2856108,-0.023942016,0.172382519,9.744400978
116.3356108,-0.026336219,0.172382519,9.744400978
116.3856108,-0.02873042,0.165199921,9.751583099
116.4356108,-0.021547815,0.165199921,9.749189377
116.4856108,-0.016759412,0.16759412,9.742006302
116.5356108,-0.021547815,0.16759412,9.751583099
116.5856108,-0.021547815,0.18674773,9.758766174
116.6356108,-0.02873042,0.162805721,9.749189377
116.6856108,-0.02873042,0.158017308,9.739612579
116.7356108,-0.026336219,0.169988319,9.739612579
116.7856108,-0.031124622,0.172382519,9.749189377
116.8356108,-0.019153614,0.18435353,9.758766174
116.8856108,-0.023942016,0.172382519,9.746794701
116.9356108,-0.023942016,0.181959331,9.730035782
116.9856108,-0.021547815,0.177170932,9.742006302
117.0356108,-0.016759412,0.165199921,9.753977776
117.0856108,-0.019153614,0.16759412,9.744400978
117.1356108,-0.019153614,0.169988319,9.758766174
117.1856108,-0.02873042,0.179565132,9.751583099
117.2356108,-0.021547815,0.172382519,9.725247383
117.2856108,-0.019153614,0.16759412,9.753977776
117.3356108,-0.026336219,0.169988319,9.739612579
117.3856108,-0.023942016,0.16759412,9.746794701
117.4356108,-0.019153614,0.16759412,9.737217903
117.4856108,-0.01436521,0.174776718,9.746794701
117.5356108,-0.02873042,0.169988319,9.742006302
117.5856108,-0.026336219,0.177170932,9.753977776
117.6356108,-0.021547815,0.16759412,9.746794701
117.6856108,-0.01436521,0.16759412,9.746794701
117.7356108,-0.02873042,0.18435353,9.753977776
117.7856108,-0.026336219,0.177170932,9.746794701
117.8356108,-0.016759412,0.169988319,9.746794701
117.8856108,-0.019153614,0.160411507,9.730035782
117.9356108,-0.016759412,0.162805721,9.742006302
117.9856108,-0.02873042,0.16759412,9.749189377
118.0356108,-0.021547815,0.177170932,9.742006302
118.0856108,-0.031124622,0.174776718,9.749189377
118.1356108,-0.019153614,0.169988319,9.734824181
118.1856108,-0.023942016,0.174776718,9.742006302
118.2356108,-0.023942016,0.169988319,9.739612579
118.2856108,-0.011971008,0.174776718,9.746794701
118.3356108,-0.02873042,0.174776718,9.751583099
118.3856108,-0.02873042,0.162805721,9.746794701
118.4356108,-0.02873042,0.169988319,9.746794701
118.4856108,-0.021547815,0.165199921,9.734824181
118.5356108,-0.021547815,0.172382519,9.739612579
118.5856108,-0.023942016,0.177170932,9.751583099
118.6356108,-0.01436521,0.162805721,9.734824181
118.6856108,-0.016759412,0.169988319,9.744400978
118.7356108,-0.021547815,0.172382519,9.742006302
118.7856108,-0.026336219,0.162805721,9.737217903
118.8356108,-0.016759412,0.16759412,9.744400978
118.8856108,-0.023942016,0.16759412,9.749189377
118.9356108,-0.021547815,0.16759412,9.737217903
118.9856108,-0.026336219,0.177170932,9.739612579
119.0356108,-0.031124622,0.174776718,9.730035782
119.0856108,-0.031124622,0.174776718,9.749189377
119.1356108,-0.021547815,0.169988319,9.751583099
119.1856108,-0.016759412,0.16759412,9.739612579
119.2356108,-0.019153614,0.165199921,9.756371498
119.2856108,-0.031124622,0.172382519,9.751583099
119.3356108,-0.033518825,0.179565132,9.734824181
119.3856108,-0.019153614,0.179565132,9.744400978
119.4356108,-0.026336219,0.169988319,9.742006302
119.4856108,-0.02873042,0.169988319,9.742006302
119.5356108,-0.026336219,0.169988319,9.737217903
119.5856108,-0.031124622,0.165199921,9.749189377
119.6356108,-0.02873042,0.174776718,9.749189377
119.6856108,-0.023942016,0.16759412,9.744400978
119.7356108,-0.016759412,0.174776718,9.722852707
119.7856108,-0.021547815,0.16759412,9.737217903
119.8356108,-0.021547815,0.169988319,9.739612579
119.8856108,-0.033518825,0.160411507,9.761159897
119.9356108,-0.035913024,0.172382519,9.746794701
119.9856108,-0.023942016,0.181959331,9.742006302
120.0356108,-0.016759412,0.16759412,9.739612579
120.0856108,-0.023942016,0.172382519,9.753977776
120.1356108,-0.031124622,0.165199921,9.737217903
120.1856108,-0.021547815,0.169988319,9.739612579
120.2356108,-0.026336219,0.172382519,9.732429504
120.2856108,-0.021547815,0.169988319,9.761159897
120.3356108,-0.026336219,0.165199921,9.749189377
120.3856108,-0.026336219,0.179565132,9.751583099
120.4356108,-0.031124622,0.177170932,9.756371498
120.4856108,-0.026336219,0.179565132,9.744400978
120.5356108,-0.019153614,0.165199921,9.744400978
120.5856108,-0.026336219,0.16759412,9.742006302
120.6356108,-0.021547815,0.172382519,9.739612579
120.6856108,-0.023942016,0.172382519,9.749189377
120.7356108,-0.02873042,0.162805721,9.725247383
120.7856108,-0.02873042,0.16759412,9.756371498
